ACCELEROMETER X (m/s²),ACCELEROMETER Y (m/s²),ACCELEROMETER Z (m/s²),GRAVITY X (m/s²),GRAVITY Y (m/s²),GRAVITY Z (m/s²),LINEAR ACCELERATION X (m/s²),LINEAR ACCELERATION Y (m/s²),LINEAR ACCELERATION Z (m/s²),MAGNETIC FIELD X (μT),MAGNETIC FIELD Y (μT),MAGNETIC FIELD Z (μT),ORIENTATION Z (azimuth °),ORIENTATION X (pitch °),ORIENTATION Y (roll °),SOUND LEVEL (dB),LOCATION Latitude : ,LOCATION Longitude : ,LOCATION Altitude ( m),LOCATION Altitude-google ( m),LOCATION Speed ( Kmh),LOCATION Accuracy ( m),LOCATION ORIENTATION (°),Satellites in range,Time since start in ms ,YYYY-MO-DD HH-MI-SS_SSS
0.936,-0.516,9.669,0.926,-0.518,9.752,0.027,0.109,0.15,1.7,-12.8,-33.4,195.7,3.0,-5.3,60.58,39.34715,16.1939,337.0,299.3918152,1.4,3.0,330.4,10 / 22,5,2017-05-30 21:27:58:157
0.878,-0.478,9.707,0.926,-0.504,9.752,0.0,0.0,-0.082,1.4,-12.7,-33.1,195.6,3.0,-5.4,60.58,39.34715,16.1939,337.0,299.3918152,1.4,3.0,330.4,10 / 22,16,2017-05-30 21:27:58:168
0.859,-0.593,9.539,0.926,-0.504,9.752,-0.054,0.027,-0.041,1.2,-12.8,-33.0,195.6,3.0,-5.4,60.58,39.34715,16.1939,337.0,299.3918152,1.4,3.0,330.4,10 / 22,26,2017-05-30 21:27:58:178
0.859,-0.593,9.539,0.926,-0.504,9.752,-0.054,0.027,-0.041,1.2,-12.8,-33.0,195.6,3.0,-5.4,60.58,39.34715,16.1939,337.0,299.3918152,1.4,3.0,330.4,10 / 22,36,2017-05-30 21:27:58:188
0.84,-0.554,9.361,0.926,-0.504,9.752,-0.068,-0.082,-0.218,1.0,-12.8,-33.1,195.6,3.0,-5.4,60.58,39.34715,16.1939,337.0,299.3918152,1.4,3.0,330.4,10 / 22,46,2017-05-30 21:27:58:198
0.84,-0.554,9.361,0.926,-0.504,9.752,-0.068,-0.082,-0.218,1.0,-12.8,-33.1,195.6,3.0,-5.4,60.58,39.34715,16.1939,337.0,299.3918152,1.4,3.0,330.4,10 / 22,56,2017-05-30 21:27:58:208
0.936,-0.487,9.8,0.926,-0.504,9.752,-0.095,-0.041,-0.395,1.1,-12.8,-33.1,195.7,2.9,-5.4,48.81,39.34715,16.1939,337.0,299.3918152,1.4,3.0,330.4,10 / 22,65,2017-05-30 21:27:58:217
0.811,-0.574,9.417,0.913,-0.49,9.752,0.014,0.014,0.054,1.1,-12.8,-33.5,195.7,2.9,-5.4,48.81,39.34715,16.1939,337.0,299.3918152,1.4,3.0,330.4,10 / 22,76,2017-05-30 21:27:58:228
0.811,-0.574,9.417,0.913,-0.49,9.752,0.014,0.014,0.054,1.1,-12.8,-33.5,195.7,2.9,-5.4,48.81,39.34715,16.1939,337.0,299.3918152,1.4,3.0,330.4,10 / 22,86,2017-05-30 21:27:58:238
0.878,-0.392,9.837,0.913,-0.49,9.752,-0.109,-0.082,-0.341,1.6,-12.8,-33.5,195.7,2.9,-5.4,48.81,39.34715,16.1939,337.0,299.3918152,1.4,3.0,330.4,10 / 22,96,2017-05-30 21:27:58:248
0.945,-0.612,9.464,0.913,-0.49,9.752,-0.041,0.109,0.082,1.6,-12.8,-33.5,199.4,2.9,-5.3,48.81,39.34715,16.1939,337.0,299.3918152,1.4,3.0,330.4,10 / 22,106,2017-05-30 21:27:58:258
0.945,-0.612,9.464,0.913,-0.49,9.752,-0.041,0.109,0.082,1.6,-12.8,-33.5,199.4,2.9,-5.3,48.81,39.34715,16.1939,337.0,299.3918152,1.4,3.0,330.4,10 / 22,116,2017-05-30 21:27:58:268
1.022,-0.42,9.894,0.913,-0.49,9.752,0.027,-0.109,-0.286,1.7,-12.6,-33.5,199.4,2.9,-5.3,48.81,39.34715,16.1939,337.0,299.3918152,1.4,3.0,330.4,10 / 22,125,2017-05-30 21:27:58:277
1.022,-0.42,9.894,0.913,-0.49,9.752,0.027,-0.109,-0.286,1.7,-12.6,-33.5,199.4,2.9,-5.3,48.81,39.34715,16.1939,337.0,299.3918152,1.4,3.0,330.4,10 / 22,136,2017-05-30 21:27:58:288
0.859,-0.535,9.492,0.926,-0.49,9.752,0.095,0.082,0.136,1.6,-12.6,-33.5,199.1,2.9,-5.3,48.81,39.34715,16.1939,337.0,299.3918152,1.4,3.0,330.4,10 / 22,146,2017-05-30 21:27:58:298
0.859,-0.535,9.492,0.926,-0.49,9.752,0.095,0.082,0.136,1.6,-12.6,-33.5,199.1,2.9,-5.3,48.81,39.34715,16.1939,337.0,299.3918152,1.4,3.0,330.4,10 / 22,156,2017-05-30 21:27:58:308
0.936,-0.487,9.632,0.913,-0.49,9.752,0.068,-0.054,-0.095,1.6,-12.6,-33.5,199.1,2.9,-5.3,48.81,39.34715,16.1939,337.0,299.3918152,1.4,3.0,330.4,10 / 22,166,2017-05-30 21:27:58:318
0.936,-0.411,9.51,0.913,-0.49,9.752,0.014,0.014,-0.123,1.1,-12.7,-33.7,199.1,2.9,-5.3,48.81,39.34715,16.1939,337.0,299.3918152,1.4,3.0,330.4,10 / 22,176,2017-05-30 21:27:58:328
0.936,-0.411,9.51,0.913,-0.49,9.752,0.014,0.014,-0.123,1.1,-12.7,-33.7,199.1,2.9,-5.3,48.81,39.34715,16.1939,337.0,299.3918152,1.4,3.0,330.4,10 / 22,186,2017-05-30 21:27:58:338
0.897,-0.602,9.212,0.913,-0.49,9.752,0.014,0.082,-0.245,1.5,-12.4,-33.8,200.7,2.9,-5.3,48.81,39.34715,16.1939,337.0,299.3918152,1.4,3.0,330.4,10 / 22,196,2017-05-30 21:27:58:348
0.897,-0.602,9.212,0.913,-0.49,9.752,0.014,0.082,-0.245,1.5,-12.4,-33.8,200.7,2.9,-5.3,48.81,39.34715,16.1939,337.0,299.3918152,1.4,3.0,330.4,10 / 22,206,2017-05-30 21:27:58:358
0.907,-0.42,9.772,0.913,-0.477,9.752,-0.027,-0.123,-0.545,1.3,-12.5,-33.8,200.7,2.9,-5.3,48.81,39.34715,16.1939,337.0,299.3918152,1.4,3.0,330.4,10 / 22,216,2017-05-30 21:27:58:368
0.907,-0.42,9.772,0.913,-0.477,9.752,-0.027,-0.123,-0.545,1.3,-12.5,-33.8,200.7,2.9,-5.3,48.81,39.34715,16.1939,337.0,299.3918152,1.4,3.0,330.4,10 / 22,226,2017-05-30 21:27:58:378
0.897,-0.497,9.408,0.913,-0.477,9.752,-0.014,0.068,0.014,1.0,-12.6,-34.0,200.7,2.9,-5.3,48.81,39.34715,16.1939,337.0,299.3918152,1.4,3.0,330.4,10 / 22,236,2017-05-30 21:27:58:388
0.84,-0.641,9.37,0.913,-0.477,9.752,-0.027,-0.014,-0.341,1.0,-12.7,-34.1,195.9,2.8,-5.3,48.81,39.34715,16.1939,337.0,299.3918152,1.4,3.0,330.4,10 / 22,246,2017-05-30 21:27:58:398
0.888,-0.507,9.847,0.913,-0.477,9.752,-0.082,-0.163,-0.381,1.0,-12.8,-34.1,195.9,2.8,-5.3,48.81,39.34715,16.1939,337.0,299.3918152,1.4,3.0,330.4,10 / 22,256,2017-05-30 21:27:58:408
0.888,-0.507,9.847,0.913,-0.477,9.752,-0.082,-0.163,-0.381,1.0,-12.8,-34.1,195.9,2.8,-5.3,48.81,39.34715,16.1939,337.0,299.3918152,1.4,3.0,330.4,10 / 22,266,2017-05-30 21:27:58:418
0.859,-0.478,9.464,0.913,-0.477,9.752,-0.027,-0.027,0.095,0.8,-13.2,-34.3,195.9,2.8,-5.3,48.81,39.34715,16.1939,337.0,299.3918152,1.4,3.0,330.4,10 / 22,276,2017-05-30 21:27:58:428
0.859,-0.478,9.464,0.913,-0.477,9.752,-0.027,-0.027,0.095,0.8,-13.2,-34.3,195.9,2.8,-5.3,48.81,39.34715,16.1939,337.0,299.3918152,1.4,3.0,330.4,10 / 22,286,2017-05-30 21:27:58:438
1.031,-0.334,9.884,0.913,-0.477,9.752,-0.054,0.0,-0.286,0.8,-13.4,-34.3,195.9,2.8,-5.3,48.81,39.34715,16.1939,337.0,299.3918152,1.4,3.0,330.4,10 / 22,296,2017-05-30 21:27:58:448
1.003,-0.554,9.426,0.913,-0.49,9.752,0.109,0.163,0.136,1.2,-13.4,-34.0,195.9,2.8,-5.3,48.81,39.34715,16.1939,337.0,299.3918152,1.4,3.0,330.4,10 / 22,306,2017-05-30 21:27:58:458
1.003,-0.554,9.426,0.913,-0.49,9.752,0.109,0.163,0.136,1.2,-13.4,-34.0,195.9,2.8,-5.3,48.81,39.34715,16.1939,337.0,299.3918152,1.4,3.0,330.4,10 / 22,316,2017-05-30 21:27:58:468
0.514,-0.363,10.043,0.913,-0.49,9.752,0.082,-0.054,-0.327,1.0,-13.4,-34.2,195.9,2.8,-5.3,48.81,39.34715,16.1939,337.0,299.3918152,1.4,3.0,330.4,10 / 22,325,2017-05-30 21:27:58:477
0.514,-0.363,10.043,0.913,-0.49,9.752,0.082,-0.054,-0.327,1.0,-13.4,-34.2,195.9,2.8,-5.3,48.81,39.34715,16.1939,337.0,299.3918152,1.4,3.0,330.4,10 / 22,335,2017-05-30 21:27:58:487
0.639,-0.612,9.604,0.913,-0.49,9.752,-0.409,0.136,0.286,1.0,-13.7,-33.7,194.9,2.9,-5.3,48.81,39.34715,16.1939,337.0,299.3918152,1.4,3.0,330.4,10 / 22,345,2017-05-30 21:27:58:497
0.639,-0.612,9.604,0.913,-0.49,9.752,-0.409,0.136,0.286,1.0,-13.7,-33.7,194.9,2.9,-5.3,48.81,39.34715,16.1939,337.0,299.3918152,1.4,3.0,330.4,10 / 22,355,2017-05-30 21:27:58:507
0.246,-0.564,9.978,0.913,-0.504,9.752,-0.286,-0.095,-0.15,1.0,-13.6,-33.7,194.9,2.9,-5.3,48.81,39.34715,16.1939,337.0,299.3918152,1.4,3.0,330.4,10 / 22,365,2017-05-30 21:27:58:517
-0.079,-0.497,9.389,0.913,-0.504,9.752,-0.667,-0.054,0.232,0.6,-13.4,-33.9,194.9,2.9,-5.3,51.94,39.34715,16.1939,337.0,299.3918152,1.4,3.0,330.4,10 / 22,375,2017-05-30 21:27:58:527
-0.079,-0.497,9.389,0.913,-0.504,9.752,-0.667,-0.054,0.232,0.6,-13.4,-33.9,194.9,2.9,-5.3,51.94,39.34715,16.1939,337.0,299.3918152,1.4,3.0,330.4,10 / 22,385,2017-05-30 21:27:58:537
-0.051,-0.478,9.053,0.885,-0.504,9.766,-0.953,0.014,-0.381,0.5,-13.4,-33.9,195.8,2.9,-5.3,51.94,39.34715,16.1939,337.0,299.3918152,1.4,3.0,330.4,10 / 22,395,2017-05-30 21:27:58:547
-0.051,-0.478,9.053,0.885,-0.504,9.766,-0.953,0.014,-0.381,0.5,-13.4,-33.9,195.8,2.9,-5.3,51.94,39.34715,16.1939,337.0,299.3918152,1.4,3.0,330.4,10 / 22,405,2017-05-30 21:27:58:557
-0.022,-0.459,9.725,0.858,-0.504,9.766,-0.899,0.027,-0.708,0.7,-13.5,-33.5,195.8,2.9,-5.3,51.94,39.34715,16.1939,337.0,299.3918152,1.4,3.0,330.4,10 / 22,415,2017-05-30 21:27:58:567
0.371,-0.612,9.249,0.776,-0.49,9.766,-0.79,0.041,-0.041,1.0,-13.1,-33.3,195.8,2.9,-5.3,51.94,39.34715,16.1939,337.0,299.3918152,1.4,3.0,330.4,10 / 22,425,2017-05-30 21:27:58:577
0.371,-0.612,9.249,0.776,-0.49,9.766,-0.79,0.041,-0.041,1.0,-13.1,-33.3,195.8,2.9,-5.3,51.94,39.34715,16.1939,337.0,299.3918152,1.4,3.0,330.4,10 / 22,435,2017-05-30 21:27:58:587
0.064,-0.497,9.903,0.708,-0.49,9.779,-0.341,-0.109,-0.531,1.0,-13.4,-33.0,193.9,2.9,-4.5,51.94,39.34715,16.1939,337.0,299.3918152,1.4,3.0,330.4,10 / 22,445,2017-05-30 21:27:58:597
0.064,-0.497,9.903,0.708,-0.49,9.779,-0.341,-0.109,-0.531,1.0,-13.4,-33.0,193.9,2.9,-4.5,51.94,39.34715,16.1939,337.0,299.3918152,1.4,3.0,330.4,10 / 22,455,2017-05-30 21:27:58:607
0.16,-0.756,9.361,0.667,-0.49,9.779,-0.613,0.0,0.123,1.3,-13.7,-33.1,193.9,2.9,-4.5,51.94,39.34715,16.1939,337.0,299.3918152,1.4,3.0,330.4,10 / 22,465,2017-05-30 21:27:58:617
-0.003,-0.478,9.922,0.599,-0.49,9.779,-0.449,-0.259,-0.422,1.6,-14.3,-32.9,193.9,2.9,-4.5,51.94,39.34715,16.1939,337.0,299.3918152,1.4,3.0,330.4,10 / 22,475,2017-05-30 21:27:58:627
-0.003,-0.478,9.922,0.599,-0.49,9.779,-0.449,-0.259,-0.422,1.6,-14.3,-32.9,193.9,2.9,-4.5,51.94,39.34715,16.1939,337.0,299.3918152,1.4,3.0,330.4,10 / 22,486,2017-05-30 21:27:58:638
-0.194,-0.564,9.567,0.545,-0.49,9.779,-0.545,0.014,0.136,1.9,-14.6,-33.4,193.6,2.9,-3.5,51.94,39.34715,16.1939,337.0,299.3918152,1.4,3.0,330.4,10 / 22,496,2017-05-30 21:27:58:648
-0.194,-0.564,9.567,0.545,-0.49,9.779,-0.545,0.014,0.136,1.9,-14.6,-33.4,193.6,2.9,-3.5,51.94,39.34715,16.1939,337.0,299.3918152,1.4,3.0,330.4,10 / 22,506,2017-05-30 21:27:58:658
-0.099,-0.583,9.641,0.504,-0.49,9.793,-0.695,-0.068,-0.232,1.8,-14.6,-33.5,193.6,2.9,-3.5,51.94,39.34715,16.1939,337.0,299.3918152,1.4,3.0,330.4,10 / 22,516,2017-05-30 21:27:58:668
-0.185,-0.689,9.548,0.436,-0.49,9.793,-0.531,-0.082,-0.15,1.8,-14.3,-33.8,193.6,2.9,-3.5,51.94,39.34715,16.1939,337.0,299.3918152,1.4,3.0,330.4,10 / 22,526,2017-05-30 21:27:58:678
-0.185,-0.689,9.548,0.436,-0.49,9.793,-0.531,-0.082,-0.15,1.8,-14.3,-33.8,193.6,2.9,-3.5,51.94,39.34715,16.1939,337.0,299.3918152,1.4,3.0,330.4,10 / 22,536,2017-05-30 21:27:58:688
-0.06,-0.842,9.268,0.341,-0.49,9.793,-0.518,-0.191,-0.245,1.6,-13.6,-33.8,192.6,2.9,-2.5,51.94,39.34715,16.1939,337.0,299.3918152,1.4,3.0,330.4,10 / 22,546,2017-05-30 21:27:58:698
-0.06,-0.842,9.268,0.341,-0.49,9.793,-0.518,-0.191,-0.245,1.6,-13.6,-33.8,192.6,2.9,-2.5,51.94,39.34715,16.1939,337.0,299.3918152,1.4,3.0,330.4,10 / 22,556,2017-05-30 21:27:58:708
-0.003,-0.574,10.052,0.3,-0.49,9.793,-0.354,-0.341,-0.531,1.4,-13.6,-33.7,192.6,2.9,-2.5,51.94,39.34715,16.1939,337.0,299.3918152,1.4,3.0,330.4,10 / 22,566,2017-05-30 21:27:58:718
0.035,-0.736,9.099,0.218,-0.504,9.793,-0.218,-0.068,0.259,1.4,-13.6,-33.7,192.6,2.9,-2.5,51.94,39.34715,16.1939,337.0,299.3918152,1.4,3.0,330.4,10 / 22,575,2017-05-30 21:27:58:727
0.035,-0.736,9.099,0.218,-0.504,9.793,-0.218,-0.068,0.259,1.4,-13.6,-33.7,192.6,2.9,-2.5,51.94,39.34715,16.1939,337.0,299.3918152,1.4,3.0,330.4,10 / 22,586,2017-05-30 21:27:58:738
0.112,-0.497,9.837,0.15,-0.518,9.793,-0.123,-0.218,-0.695,1.7,-13.6,-34.4,189.9,2.9,-1.3,51.94,39.34714,16.1939,337.0,299.3918152,1.0,3.0,330.4,9 / 21,597,2017-05-30 21:27:58:749
0.083,-0.727,9.52,0.15,-0.518,9.793,-0.123,-0.218,-0.695,1.7,-13.6,-34.4,189.9,2.9,-1.3,51.94,39.34714,16.1939,337.0,299.3918152,1.0,3.0,330.4,9 / 21,605,2017-05-30 21:27:58:757
0.17,-0.756,9.296,0.095,-0.531,9.793,0.014,0.0,0.163,1.3,-13.9,-34.4,189.9,2.9,-1.3,51.94,39.34714,16.1939,337.0,299.3918152,1.0,3.0,330.4,9 / 21,618,2017-05-30 21:27:58:770
0.17,-0.756,9.296,0.095,-0.531,9.793,0.014,0.0,0.163,1.3,-13.9,-34.4,189.9,2.9,-1.3,51.94,39.34714,16.1939,337.0,299.3918152,1.0,3.0,330.4,9 / 21,625,2017-05-30 21:27:58:777
0.17,-0.756,9.296,0.095,-0.531,9.793,0.014,0.0,0.163,1.3,-13.9,-34.4,189.9,2.9,-1.3,51.94,39.34714,16.1939,337.0,299.3918152,1.0,3.0,330.4,9 / 21,635,2017-05-30 21:27:58:787
0.265,-0.583,9.809,0.054,-0.558,9.793,0.109,-0.191,-0.504,1.1,-14.1,-34.4,184.8,3.1,-0.6,51.94,39.34714,16.1939,337.0,299.3918152,1.0,3.0,330.4,9 / 21,646,2017-05-30 21:27:58:798
0.112,-0.65,9.501,0.041,-0.558,9.793,0.054,-0.014,0.136,0.9,-14.0,-34.1,184.8,3.1,-0.6,51.94,39.34714,16.1939,337.0,299.3918152,1.0,3.0,330.4,9 / 21,656,2017-05-30 21:27:58:808
0.112,-0.65,9.501,0.041,-0.558,9.793,0.054,-0.014,0.136,0.9,-14.0,-34.1,184.8,3.1,-0.6,51.94,39.34714,16.1939,337.0,299.3918152,1.0,3.0,330.4,9 / 21,667,2017-05-30 21:27:58:819
0.284,-0.602,9.837,0.027,-0.572,9.793,0.082,-0.068,-0.286,0.7,-14.5,-33.7,184.8,3.1,-0.6,51.94,39.34714,16.1939,337.0,299.3918152,1.0,3.0,330.4,9 / 21,676,2017-05-30 21:27:58:828
-0.07,-0.554,9.819,0.027,-0.572,9.793,0.245,-0.027,0.041,1.0,-14.8,-33.7,183.7,3.3,-0.2,51.94,39.34714,16.1939,337.0,299.3918152,1.0,3.0,330.4,9 / 21,686,2017-05-30 21:27:58:838
-0.07,-0.554,9.819,0.027,-0.572,9.793,0.245,-0.027,0.041,1.0,-14.8,-33.7,183.7,3.3,-0.2,51.94,39.34714,16.1939,337.0,299.3918152,1.0,3.0,330.4,9 / 21,696,2017-05-30 21:27:58:848
0.141,-0.717,9.389,0.027,-0.572,9.793,-0.095,0.027,0.027,1.2,-14.5,-33.3,183.7,3.3,-0.2,64.06,39.34714,16.1939,337.0,299.3918152,1.0,3.0,330.4,9 / 21,706,2017-05-30 21:27:58:858
0.064,-0.612,9.679,0.027,-0.572,9.793,-0.095,0.027,0.027,1.2,-14.5,-33.3,183.7,3.3,-0.2,64.06,39.34714,16.1939,337.0,299.3918152,1.0,3.0,330.4,9 / 21,716,2017-05-30 21:27:58:868
0.102,-0.775,9.352,0.041,-0.572,9.793,0.109,0.027,0.082,1.5,-14.0,-33.4,187.5,3.3,-0.2,64.06,39.34714,16.1939,337.0,299.3918152,1.0,3.0,330.4,9 / 21,726,2017-05-30 21:27:58:878
0.102,-0.775,9.352,0.041,-0.572,9.793,0.109,0.027,0.082,1.5,-14.0,-33.4,187.5,3.3,-0.2,64.06,39.34714,16.1939,337.0,299.3918152,1.0,3.0,330.4,9 / 21,736,2017-05-30 21:27:58:888
0.17,-0.622,9.529,0.041,-0.572,9.793,0.054,-0.191,-0.436,1.6,-13.7,-33.7,187.5,3.3,-0.2,64.06,39.34714,16.1939,337.0,299.3918152,1.0,3.0,330.4,9 / 21,745,2017-05-30 21:27:58:897
0.17,-0.622,9.529,0.041,-0.572,9.793,0.054,-0.191,-0.436,1.6,-13.7,-33.7,187.5,3.3,-0.2,64.06,39.34714,16.1939,337.0,299.3918152,1.0,3.0,330.4,9 / 21,755,2017-05-30 21:27:58:907
0.112,-0.564,9.697,0.041,-0.586,9.793,0.232,0.082,0.218,1.1,-13.7,-33.5,184.1,3.3,-0.2,64.06,39.34714,16.1939,337.0,299.3918152,1.0,3.0,330.4,9 / 21,765,2017-05-30 21:27:58:917
0.256,-0.554,9.735,0.041,-0.586,9.793,0.232,0.082,0.218,1.1,-13.7,-33.5,184.1,3.3,-0.2,64.06,39.34714,16.1939,337.0,299.3918152,1.0,3.0,330.4,9 / 21,776,2017-05-30 21:27:58:928
0.256,-0.554,9.735,0.041,-0.586,9.793,0.136,-0.123,-0.354,0.7,-13.4,-33.7,184.1,3.3,-0.2,64.06,39.34714,16.1939,337.0,299.3918152,1.0,3.0,330.4,9 / 21,786,2017-05-30 21:27:58:938
0.294,-0.545,10.043,0.041,-0.586,9.793,0.136,-0.123,-0.354,0.7,-13.4,-33.7,184.1,3.3,-0.2,64.06,39.34714,16.1939,337.0,299.3918152,1.0,3.0,330.4,9 / 21,796,2017-05-30 21:27:58:948
0.294,-0.545,10.043,0.041,-0.586,9.793,0.136,-0.123,-0.354,0.7,-13.4,-33.7,184.1,3.3,-0.2,64.06,39.34714,16.1939,337.0,299.3918152,1.0,3.0,330.4,9 / 21,806,2017-05-30 21:27:58:958
0.179,-0.813,9.202,0.054,-0.599,9.793,0.232,0.054,0.245,0.5,-13.6,-33.8,180.5,3.4,-0.2,64.06,39.34714,16.1939,337.0,299.3918152,1.0,3.0,330.4,9 / 21,815,2017-05-30 21:27:58:967
0.064,-0.717,9.968,0.095,-0.613,9.793,0.082,-0.191,-0.586,0.2,-14.2,-34.0,180.5,3.4,-0.2,64.06,39.34714,16.1939,337.0,299.3918152,1.0,3.0,330.4,9 / 21,825,2017-05-30 21:27:58:977
0.064,-0.717,9.968,0.095,-0.613,9.793,0.082,-0.191,-0.586,0.2,-14.2,-34.0,180.5,3.4,-0.2,64.06,39.34714,16.1939,337.0,299.3918152,1.0,3.0,330.4,9 / 21,835,2017-05-30 21:27:58:987
0.15,-0.756,9.501,0.123,-0.627,9.793,-0.068,-0.082,0.177,0.9,-14.0,-34.1,180.5,3.4,-0.2,64.06,39.34714,16.1939,337.0,299.3918152,1.0,3.0,330.4,9 / 21,845,2017-05-30 21:27:58:997
0.15,-0.756,9.501,0.123,-0.627,9.793,-0.068,-0.082,0.177,0.9,-14.0,-34.1,180.5,3.4,-0.2,64.06,39.34714,16.1939,337.0,299.3918152,1.0,3.0,330.4,9 / 21,856,2017-05-30 21:27:59:008
0.217,-0.65,9.819,0.123,-0.627,9.793,0.027,-0.123,-0.286,0.8,-14.0,-33.9,185.0,3.7,-0.7,64.06,39.34714,16.1939,337.0,299.3918152,1.0,3.0,330.4,9 / 21,866,2017-05-30 21:27:59:018
0.016,-0.794,9.37,0.123,-0.627,9.793,0.082,-0.014,0.027,1.3,-14.2,-34.1,185.0,3.7,-0.7,64.06,39.34714,16.1939,337.0,299.3918152,1.0,3.0,330.4,9 / 21,876,2017-05-30 21:27:59:028
0.016,-0.794,9.37,0.123,-0.627,9.793,0.082,-0.014,0.027,1.3,-14.2,-34.1,185.0,3.7,-0.7,64.06,39.34714,16.1939,337.0,299.3918152,1.0,3.0,330.4,9 / 21,885,2017-05-30 21:27:59:037
0.055,-0.871,9.324,0.136,-0.627,9.793,-0.123,-0.163,-0.422,1.5,-13.8,-34.1,185.0,3.7,-0.7,64.06,39.34714,16.1939,337.0,299.3918152,1.0,3.0,330.4,9 / 21,895,2017-05-30 21:27:59:047
0.055,-0.871,9.324,0.136,-0.627,9.793,-0.123,-0.163,-0.422,1.5,-13.8,-34.1,185.0,3.7,-0.7,64.06,39.34714,16.1939,337.0,299.3918152,1.0,3.0,330.4,9 / 21,905,2017-05-30 21:27:59:057
-0.041,-0.756,9.623,0.136,-0.64,9.793,-0.082,-0.218,-0.463,1.9,-13.5,-34.0,189.3,3.7,-0.8,64.06,39.34714,16.1939,337.0,299.3918152,1.0,3.0,330.4,9 / 21,915,2017-05-30 21:27:59:067
0.208,-0.861,9.576,0.136,-0.654,9.793,-0.177,-0.095,-0.177,1.4,-13.3,-34.2,189.3,3.7,-0.8,64.06,39.34714,16.1939,337.0,299.3918152,1.0,3.0,330.4,9 / 21,925,2017-05-30 21:27:59:077
0.208,-0.861,9.576,0.136,-0.654,9.793,-0.177,-0.095,-0.177,1.4,-13.3,-34.2,189.3,3.7,-0.8,64.06,39.34714,16.1939,337.0,299.3918152,1.0,3.0,330.4,9 / 21,935,2017-05-30 21:27:59:087
0.141,-0.794,9.866,0.136,-0.654,9.793,0.068,-0.204,-0.218,1.7,-13.3,-33.9,189.3,3.7,-0.8,64.06,39.34714,16.1939,337.0,299.3918152,1.0,3.0,330.4,9 / 21,945,2017-05-30 21:27:59:097
0.141,-0.794,9.866,0.136,-0.654,9.793,0.068,-0.204,-0.218,1.7,-13.3,-33.9,189.3,3.7,-0.8,64.06,39.34714,16.1939,337.0,299.3918152,1.0,3.0,330.4,9 / 21,956,2017-05-30 21:27:59:108
0.074,-0.928,9.258,0.136,-0.654,9.793,0.0,-0.136,0.068,1.8,-13.3,-34.1,189.2,3.8,-0.8,64.06,39.34714,16.1939,337.0,299.3918152,1.0,3.0,330.4,9 / 21,966,2017-05-30 21:27:59:118
0.083,-0.765,9.959,0.136,-0.667,9.793,-0.068,-0.259,-0.531,2.2,-13.3,-34.5,189.2,3.8,-0.8,64.06,39.34714,16.1939,337.0,299.3918152,1.0,3.0,330.4,9 / 21,976,2017-05-30 21:27:59:128
0.083,-0.765,9.959,0.136,-0.667,9.793,-0.068,-0.259,-0.531,2.2,-13.3,-34.5,189.2,3.8,-0.8,64.06,39.34714,16.1939,337.0,299.3918152,1.0,3.0,330.4,9 / 21,985,2017-05-30 21:27:59:137
0.026,-0.928,9.539,0.15,-0.695,9.793,-0.068,-0.068,0.163,2.0,-13.9,-34.4,189.2,3.8,-0.8,64.06,39.34714,16.1939,337.0,299.3918152,1.0,3.0,330.4,9 / 21,995,2017-05-30 21:27:59:147
0.026,-0.928,9.539,0.15,-0.695,9.793,-0.068,-0.068,0.163,2.0,-13.9,-34.4,189.2,3.8,-0.8,64.06,39.34714,16.1939,337.0,299.3918152,1.0,3.0,330.4,9 / 21,1006,2017-05-30 21:27:59:158
0.055,-0.746,9.809,0.15,-0.695,9.793,-0.136,-0.232,-0.259,2.1,-13.9,-34.0,188.8,4.1,-0.9,64.06,39.34714,16.1939,337.0,299.3918152,1.0,3.0,330.4,9 / 21,1016,2017-05-30 21:27:59:168
-0.089,-0.909,9.38,0.136,-0.735,9.779,-0.082,0.0,0.027,2.3,-13.6,-34.0,188.8,4.1,-0.9,51.97,39.34714,16.1939,337.0,299.3918152,1.0,3.0,330.4,9 / 21,1026,2017-05-30 21:27:59:178
-0.089,-0.909,9.38,0.136,-0.735,9.779,-0.082,0.0,0.027,2.3,-13.6,-34.0,188.8,4.1,-0.9,51.97,39.34714,16.1939,337.0,299.3918152,1.0,3.0,330.4,9 / 21,1036,2017-05-30 21:27:59:188
0.112,-0.669,9.8,0.123,-0.763,9.779,-0.204,-0.136,-0.395,1.9,-13.9,-33.7,188.8,4.1,-0.9,51.97,39.34714,16.1939,337.0,299.3918152,1.0,3.0,330.4,9 / 21,1046,2017-05-30 21:27:59:198
0.112,-0.669,9.8,0.123,-0.763,9.779,-0.204,-0.136,-0.395,1.9,-13.9,-33.7,188.8,4.1,-0.9,51.97,39.34714,16.1939,337.0,299.3918152,1.0,3.0,330.4,9 / 21,1056,2017-05-30 21:27:59:208
0.045,-0.736,9.837,0.123,-0.776,9.779,-0.163,-0.027,-0.572,1.7,-14.0,-33.4,188.3,4.5,-0.7,51.97,39.34714,16.1939,337.0,299.3918152,1.0,3.0,330.4,9 / 21,1065,2017-05-30 21:27:59:217
0.016,-0.813,9.436,0.095,-0.79,9.779,-0.054,0.054,0.054,2.2,-13.5,-33.5,188.3,4.5,-0.7,51.97,39.34714,16.1939,337.0,299.3918152,1.0,3.0,330.4,9 / 21,1076,2017-05-30 21:27:59:228
0.016,-0.813,9.436,0.095,-0.79,9.779,-0.054,0.054,0.054,2.2,-13.5,-33.5,188.3,4.5,-0.7,51.97,39.34714,16.1939,337.0,299.3918152,1.0,3.0,330.4,9 / 21,1086,2017-05-30 21:27:59:238
0.074,-0.784,9.52,0.095,-0.79,9.779,-0.082,-0.014,-0.341,2.0,-13.7,-33.7,188.3,4.5,-0.7,51.97,39.34714,16.1939,337.0,299.3918152,1.0,3.0,330.4,9 / 21,1096,2017-05-30 21:27:59:248
0.074,-0.784,9.52,0.095,-0.79,9.779,-0.082,-0.014,-0.341,2.0,-13.7,-33.7,188.3,4.5,-0.7,51.97,39.34714,16.1939,337.0,299.3918152,1.0,3.0,330.4,9 / 21,1106,2017-05-30 21:27:59:258
-0.022,-0.851,9.24,0.082,-0.79,9.779,-0.014,0.014,-0.259,2.0,-13.7,-33.6,188.0,4.6,-0.6,51.97,39.34714,16.1939,337.0,299.3918152,1.0,3.0,330.4,9 / 21,1116,2017-05-30 21:27:59:268
0.083,-0.689,9.837,0.082,-0.79,9.779,-0.014,0.014,-0.259,2.0,-13.7,-33.6,188.0,4.6,-0.6,51.97,39.34714,16.1939,337.0,299.3918152,1.0,3.0,330.4,9 / 21,1126,2017-05-30 21:27:59:278
0.083,-0.689,9.837,0.082,-0.79,9.779,0.232,0.082,-0.082,2.5,-13.3,-33.4,188.0,4.6,-0.6,51.97,39.34714,16.1939,337.0,299.3918152,1.0,3.0,330.4,9 / 21,1136,2017-05-30 21:27:59:288
0.074,-0.899,9.305,0.082,-0.79,9.779,0.0,0.109,0.054,2.2,-13.4,-33.4,188.0,4.6,-0.6,51.97,39.34714,16.1939,337.0,299.3918152,1.0,3.0,330.4,9 / 21,1145,2017-05-30 21:27:59:297
0.074,-0.899,9.305,0.082,-0.79,9.779,0.0,0.109,0.054,2.2,-13.4,-33.4,188.0,4.6,-0.6,51.97,39.34714,16.1939,337.0,299.3918152,1.0,3.0,330.4,9 / 21,1156,2017-05-30 21:27:59:308
0.265,-0.794,9.875,0.082,-0.79,9.779,-0.014,-0.109,-0.477,2.3,-13.1,-33.4,188.3,4.6,-0.5,51.97,39.34714,16.1939,337.0,299.3918152,1.0,3.0,330.4,9 / 21,1165,2017-05-30 21:27:59:317
-0.032,-0.851,9.445,0.068,-0.804,9.779,0.191,0.014,0.095,2.3,-12.8,-33.6,188.3,4.6,-0.5,51.97,39.34714,16.1939,337.0,299.3918152,1.0,3.0,330.4,9 / 21,1177,2017-05-30 21:27:59:329
-0.032,-0.851,9.445,0.068,-0.804,9.779,0.191,0.014,0.095,2.3,-12.8,-33.6,188.3,4.6,-0.5,51.97,39.34714,16.1939,337.0,299.3918152,1.0,3.0,330.4,9 / 21,1186,2017-05-30 21:27:59:338
0.16,-0.669,9.95,0.068,-0.804,9.779,-0.095,-0.041,-0.341,2.5,-12.9,-33.8,188.1,4.7,-0.4,51.97,39.34714,16.1939,337.0,299.3918152,1.0,3.0,330.4,9 / 21,1196,2017-05-30 21:27:59:348
0.16,-0.669,9.95,0.068,-0.804,9.779,-0.095,-0.041,-0.341,2.5,-12.9,-33.8,188.1,4.7,-0.4,51.97,39.34714,16.1939,337.0,299.3918152,1.0,3.0,330.4,9 / 21,1206,2017-05-30 21:27:59:358
0.007,-0.784,9.763,0.068,-0.804,9.779,-0.014,-0.095,-0.327,2.5,-12.9,-34.0,188.1,4.7,-0.4,51.97,39.34714,16.1939,337.0,299.3918152,1.0,3.0,330.4,9 / 21,1215,2017-05-30 21:27:59:367
0.016,-0.813,9.623,0.068,-0.804,9.779,-0.068,0.027,-0.014,2.7,-12.9,-33.8,188.1,4.7,-0.4,51.97,39.34714,16.1939,337.0,299.3918152,1.0,3.0,330.4,9 / 21,1226,2017-05-30 21:27:59:378
0.016,-0.813,9.623,0.068,-0.804,9.779,-0.068,0.027,-0.014,2.7,-12.9,-33.8,188.1,4.7,-0.4,51.97,39.34714,16.1939,337.0,299.3918152,1.0,3.0,330.4,9 / 21,1236,2017-05-30 21:27:59:388
-0.137,-0.803,9.529,0.068,-0.804,9.779,-0.054,0.0,-0.163,2.7,-13.1,-33.8,191.6,4.7,-0.4,51.97,39.34714,16.1939,337.0,299.3918152,1.0,3.0,330.4,9 / 21,1246,2017-05-30 21:27:59:398
-0.137,-0.803,9.529,0.068,-0.804,9.779,-0.054,0.0,-0.163,2.7,-13.1,-33.8,191.6,4.7,-0.4,51.97,39.34714,16.1939,337.0,299.3918152,1.0,3.0,330.4,9 / 21,1256,2017-05-30 21:27:59:408
0.17,-0.746,9.342,0.068,-0.804,9.779,0.218,0.259,0.082,2.9,-13.1,-33.7,191.6,4.7,-0.4,51.97,39.34714,16.1939,337.0,299.3918152,1.0,3.0,330.4,9 / 21,1266,2017-05-30 21:27:59:418
0.179,-0.545,9.847,0.068,-0.804,9.779,0.095,0.068,-0.436,2.5,-13.5,-33.7,191.6,4.7,-0.4,51.97,39.34714,16.1939,337.0,299.3918152,1.0,3.0,330.4,9 / 21,1276,2017-05-30 21:27:59:428
0.179,-0.545,9.847,0.068,-0.804,9.779,0.095,0.068,-0.436,2.5,-13.5,-33.7,191.6,4.7,-0.4,51.97,39.34714,16.1939,337.0,299.3918152,1.0,3.0,330.4,9 / 21,1286,2017-05-30 21:27:59:438
0.122,-0.612,9.445,0.068,-0.804,9.779,0.109,0.259,0.068,2.8,-13.4,-33.4,191.7,4.7,-0.4,51.97,39.34714,16.1939,337.0,299.3918152,1.0,3.0,330.4,9 / 21,1296,2017-05-30 21:27:59:448
0.122,-0.612,9.445,0.068,-0.804,9.779,0.109,0.259,0.068,2.8,-13.4,-33.4,191.7,4.7,-0.4,51.97,39.34714,16.1939,337.0,299.3918152,1.0,3.0,330.4,9 / 21,1306,2017-05-30 21:27:59:458
0.141,-0.669,9.781,0.068,-0.79,9.779,0.041,0.191,-0.341,2.5,-13.4,-33.2,191.7,4.7,-0.4,51.97,39.34714,16.1939,337.0,299.3918152,1.0,3.0,330.4,9 / 21,1316,2017-05-30 21:27:59:468
-0.012,-0.851,9.333,0.068,-0.79,9.779,0.041,0.191,-0.341,2.5,-13.4,-33.2,191.7,4.7,-0.4,51.97,39.34714,16.1939,337.0,299.3918152,1.0,3.0,330.4,9 / 21,1326,2017-05-30 21:27:59:478
-0.012,-0.851,9.333,0.068,-0.776,9.779,0.027,0.123,-0.136,2.3,-13.1,-33.0,188.1,4.6,-0.4,51.97,39.34714,16.1939,337.0,299.3918152,1.0,3.0,330.4,9 / 21,1336,2017-05-30 21:27:59:488
0.15,-0.756,9.37,0.068,-0.763,9.779,-0.068,-0.082,-0.449,2.5,-13.1,-33.2,188.1,4.6,-0.4,51.97,39.34714,16.1939,337.0,299.3918152,1.0,3.0,330.4,9 / 21,1345,2017-05-30 21:27:59:497
0.15,-0.756,9.37,0.068,-0.763,9.779,-0.068,-0.082,-0.449,2.5,-13.1,-33.2,188.1,4.6,-0.4,51.97,39.34714,16.1939,337.0,299.3918152,1.0,3.0,330.4,9 / 21,1355,2017-05-30 21:27:59:507
0.045,-0.794,9.66,0.068,-0.763,9.779,0.191,0.109,0.054,2.5,-12.8,-33.2,188.1,4.6,-0.4,52.1,39.34714,16.1939,337.0,299.3918152,1.0,3.0,330.4,9 / 21,1366,2017-05-30 21:27:59:518
0.122,-0.823,9.641,0.068,-0.763,9.779,0.191,0.109,0.054,2.5,-12.8,-33.2,188.1,4.6,-0.4,52.1,39.34714,16.1939,337.0,299.3918152,1.0,3.0,330.4,9 / 21,1376,2017-05-30 21:27:59:528
0.122,-0.823,9.641,0.068,-0.763,9.779,0.0,-0.068,-0.409,2.5,-13.2,-33.2,191.8,4.5,-0.4,52.1,39.34714,16.1939,337.0,299.3918152,1.0,3.0,330.4,9 / 21,1386,2017-05-30 21:27:59:538
-0.204,-0.899,9.426,0.068,-0.763,9.779,0.0,-0.068,-0.409,2.5,-13.2,-33.2,191.8,4.5,-0.4,52.1,39.34714,16.1939,337.0,299.3918152,1.0,3.0,330.4,9 / 21,1396,2017-05-30 21:27:59:548
-0.204,-0.899,9.426,0.068,-0.763,9.779,0.0,-0.068,-0.409,2.5,-13.2,-33.2,191.8,4.5,-0.4,52.1,39.34714,16.1939,337.0,299.3918152,1.0,3.0,330.4,9 / 21,1405,2017-05-30 21:27:59:557
0.112,-0.803,9.24,0.068,-0.763,9.779,0.082,0.163,0.109,2.6,-13.2,-33.4,191.8,4.5,-0.4,52.1,39.34714,16.1939,337.0,299.3918152,1.0,3.0,330.4,9 / 21,1415,2017-05-30 21:27:59:567
0.112,-0.803,9.24,0.068,-0.763,9.779,0.082,0.163,0.109,2.6,-13.2,-33.4,191.8,4.5,-0.4,52.1,39.34714,16.1939,337.0,299.3918152,1.0,3.0,330.4,9 / 21,1425,2017-05-30 21:27:59:577
0.179,-0.526,9.791,0.068,-0.763,9.779,0.041,-0.041,-0.545,2.8,-13.1,-33.1,191.8,4.5,-0.4,52.1,39.34714,16.1939,337.0,299.3918152,1.0,3.0,330.4,9 / 21,1435,2017-05-30 21:27:59:587
-0.204,-0.775,9.454,0.068,-0.749,9.779,0.109,0.232,0.014,2.9,-13.1,-33.4,191.8,4.5,-0.4,52.1,39.34714,16.1939,337.0,299.3918152,1.0,3.0,330.4,9 / 21,1445,2017-05-30 21:27:59:597
-0.204,-0.775,9.454,0.068,-0.749,9.779,0.109,0.232,0.014,2.9,-13.1,-33.4,191.8,4.5,-0.4,52.1,39.34714,16.1939,337.0,299.3918152,1.0,3.0,330.4,9 / 21,1455,2017-05-30 21:27:59:607
0.035,-0.612,9.987,0.082,-0.749,9.779,-0.272,-0.014,-0.327,3.0,-13.1,-33.5,191.8,4.5,-0.4,52.1,39.34714,16.1939,337.0,299.3918152,1.0,3.0,330.4,9 / 21,1466,2017-05-30 21:27:59:618
-0.089,-0.765,9.464,0.082,-0.735,9.779,-0.054,0.136,0.204,3.1,-13.1,-33.6,191.9,4.4,-0.5,52.1,39.34714,16.1939,337.0,299.3918152,1.0,3.0,330.4,9 / 21,1476,2017-05-30 21:27:59:628
-0.089,-0.765,9.464,0.082,-0.735,9.779,-0.054,0.136,0.204,3.1,-13.1,-33.6,191.9,4.4,-0.5,52.1,39.34714,16.1939,337.0,299.3918152,1.0,3.0,330.4,9 / 21,1486,2017-05-30 21:27:59:638
0.035,-0.612,9.94,0.082,-0.735,9.779,-0.163,-0.027,-0.313,3.0,-13.1,-34.1,191.9,4.4,-0.5,52.1,39.34714,16.1939,337.0,299.3918152,1.0,3.0,330.4,9 / 21,1496,2017-05-30 21:27:59:648
0.035,-0.612,9.94,0.082,-0.735,9.779,-0.163,-0.027,-0.313,3.0,-13.1,-34.1,191.9,4.4,-0.5,52.1,39.34714,16.1939,337.0,299.3918152,1.0,3.0,330.4,9 / 21,1506,2017-05-30 21:27:59:658
-0.032,-0.43,9.557,0.082,-0.735,9.779,0.027,0.232,-0.49,3.2,-13.1,-34.1,191.9,4.4,-0.5,52.1,39.34714,16.1939,337.0,299.3918152,1.0,3.0,330.4,9 / 21,1515,2017-05-30 21:27:59:667
0.045,-0.315,9.557,0.068,-0.722,9.793,-0.095,0.3,-0.232,3.4,-13.4,-34.2,192.0,4.3,-0.5,52.1,39.34714,16.1939,337.0,299.3918152,1.0,3.0,330.4,9 / 21,1525,2017-05-30 21:27:59:677
0.045,-0.315,9.557,0.068,-0.722,9.793,-0.095,0.3,-0.232,3.4,-13.4,-34.2,192.0,4.3,-0.5,52.1,39.34714,16.1939,337.0,299.3918152,1.0,3.0,330.4,9 / 21,1535,2017-05-30 21:27:59:687
0.045,-0.315,9.557,0.068,-0.722,9.793,-0.095,0.3,-0.232,3.4,-13.4,-34.2,192.0,4.3,-0.5,52.1,39.34714,16.1939,337.0,299.3918152,1.0,3.0,330.4,9 / 21,1545,2017-05-30 21:27:59:697
-0.3,-0.507,9.24,0.068,-0.722,9.793,-0.027,0.409,-0.232,3.2,-13.4,-33.9,192.0,4.3,-0.5,52.1,39.34714,16.1939,337.0,299.3918152,1.0,3.0,330.4,9 / 21,1556,2017-05-30 21:27:59:708
-0.051,-0.344,9.268,0.068,-0.708,9.793,-0.368,0.204,-0.558,3.2,-13.4,-34.1,191.8,4.2,-0.4,52.1,39.34714,16.1939,337.0,299.3918152,1.0,3.0,330.4,9 / 21,1566,2017-05-30 21:27:59:718
-0.012,-0.296,9.51,0.068,-0.708,9.793,-0.368,0.204,-0.558,3.2,-13.4,-34.1,191.8,4.2,-0.4,52.1,39.34714,16.1939,337.0,299.3918152,1.0,3.0,330.4,9 / 21,1576,2017-05-30 21:27:59:728
-0.012,-0.296,9.51,0.054,-0.681,9.793,-0.054,0.341,-0.027,3.3,-13.4,-33.8,191.8,4.2,-0.4,52.1,39.34714,16.1939,337.0,299.3918152,1.0,3.0,330.4,9 / 21,1586,2017-05-30 21:27:59:738
-0.012,-0.296,9.51,0.054,-0.681,9.793,-0.054,0.341,-0.027,3.2,-13.4,-33.7,191.8,4.2,-0.4,52.1,39.34714,16.1939,337.0,299.3918152,1.0,3.0,330.4,9 / 21,1595,2017-05-30 21:27:59:747
-0.079,-0.459,9.389,0.041,-0.654,9.793,-0.041,0.368,-0.286,3.2,-13.4,-33.7,191.8,4.2,-0.4,52.1,39.34713,16.1939,337.0,299.3918152,0.9,3.0,330.4,13 / 22,1606,2017-05-30 21:27:59:758
-0.376,-0.411,9.277,0.027,-0.64,9.793,-0.095,0.191,-0.409,3.2,-13.1,-33.7,191.7,3.8,-0.2,52.1,39.34713,16.1939,337.0,299.3918152,0.9,3.0,330.4,13 / 22,1616,2017-05-30 21:27:59:768
-0.376,-0.411,9.277,0.027,-0.64,9.793,-0.095,0.191,-0.409,3.2,-13.1,-33.7,191.7,3.8,-0.2,52.1,39.34713,16.1939,337.0,299.3918152,0.9,3.0,330.4,13 / 22,1625,2017-05-30 21:27:59:777
-0.204,-0.535,9.38,0.0,-0.586,9.793,-0.368,0.177,-0.518,3.3,-12.7,-33.4,191.7,3.8,-0.2,52.1,39.34713,16.1939,337.0,299.3918152,0.9,3.0,330.4,13 / 22,1636,2017-05-30 21:27:59:788
-0.204,-0.535,9.38,0.0,-0.586,9.793,-0.368,0.177,-0.518,3.3,-12.7,-33.4,191.7,3.8,-0.2,52.1,39.34713,16.1939,337.0,299.3918152,0.9,3.0,330.4,13 / 22,1646,2017-05-30 21:27:59:798
-0.204,-0.535,9.38,-0.027,-0.558,9.793,-0.163,0.027,-0.409,3.2,-12.7,-33.4,191.3,3.4,0.0,52.1,39.34713,16.1939,337.0,299.3918152,0.9,3.0,330.4,13 / 22,1658,2017-05-30 21:27:59:810
-0.137,-0.44,9.137,-0.027,-0.558,9.793,-0.163,0.027,-0.409,3.2,-12.7,-33.4,191.3,3.4,0.0,52.1,39.34713,16.1939,337.0,299.3918152,0.9,3.0,330.4,13 / 22,1666,2017-05-30 21:27:59:818
-0.338,-0.344,9.679,-0.027,-0.558,9.793,-0.109,0.123,-0.654,3.2,-13.0,-33.3,191.3,3.4,0.0,51.96,39.34713,16.1939,337.0,299.3918152,0.9,3.0,330.4,13 / 22,1676,2017-05-30 21:27:59:828
-0.338,-0.344,9.679,-0.027,-0.558,9.793,-0.109,0.123,-0.654,3.2,-13.0,-33.3,191.3,3.4,0.0,51.96,39.34713,16.1939,337.0,299.3918152,0.9,3.0,330.4,13 / 22,1686,2017-05-30 21:27:59:838
-0.214,-0.43,9.37,-0.027,-0.531,9.793,-0.3,0.191,-0.109,3.3,-13.1,-33.0,191.1,3.3,0.2,51.96,39.34713,16.1939,337.0,299.3918152,0.9,3.0,330.4,13 / 22,1696,2017-05-30 21:27:59:848
-0.214,-0.43,9.37,-0.027,-0.531,9.793,-0.3,0.191,-0.109,3.3,-13.1,-33.0,191.1,3.3,0.2,51.96,39.34713,16.1939,337.0,299.3918152,0.9,3.0,330.4,13 / 22,1705,2017-05-30 21:27:59:857
-0.108,-0.449,9.632,-0.054,-0.49,9.807,-0.15,0.068,-0.436,3.2,-13.1,-32.8,191.1,3.3,0.2,51.96,39.34713,16.1939,337.0,299.3918152,0.9,3.0,330.4,13 / 22,1715,2017-05-30 21:27:59:867
-0.108,-0.449,9.632,-0.054,-0.49,9.807,-0.15,0.068,-0.436,3.2,-13.1,-32.8,191.1,3.3,0.2,51.96,39.34713,16.1939,337.0,299.3918152,0.9,3.0,330.4,13 / 22,1725,2017-05-30 21:27:59:877
-0.127,-0.459,9.604,-0.068,-0.49,9.807,-0.027,0.054,-0.177,3.2,-13.0,-32.8,190.9,2.9,0.3,51.96,39.34713,16.1939,337.0,299.3918152,0.9,3.0,330.4,13 / 22,1736,2017-05-30 21:27:59:888
-0.127,-0.459,9.604,-0.082,-0.477,9.807,-0.041,0.027,-0.204,3.5,-12.6,-32.1,190.9,2.9,0.3,51.96,39.34713,16.1939,337.0,299.3918152,0.9,3.0,330.4,13 / 22,1746,2017-05-30 21:27:59:898
-0.127,-0.622,10.099,-0.082,-0.477,9.807,-0.041,0.027,-0.204,3.5,-12.6,-32.1,190.9,2.9,0.3,51.96,39.34713,16.1939,337.0,299.3918152,0.9,3.0,330.4,13 / 22,1756,2017-05-30 21:27:59:908
-0.204,-0.851,10.006,-0.095,-0.463,9.807,-0.027,-0.15,0.286,3.4,-12.7,-32.0,190.9,2.9,0.3,51.96,39.34713,16.1939,337.0,299.3918152,0.9,3.0,330.4,13 / 22,1766,2017-05-30 21:27:59:918
-0.204,-0.851,10.006,-0.095,-0.463,9.807,-0.123,-0.3,0.327,3.4,-12.6,-32.0,190.5,2.7,0.6,51.96,39.34713,16.1939,337.0,299.3918152,0.9,3.0,330.4,13 / 22,1775,2017-05-30 21:27:59:927
-0.204,-0.851,10.006,-0.095,-0.463,9.807,-0.123,-0.3,0.327,3.4,-12.6,-32.0,190.5,2.7,0.6,51.96,39.34713,16.1939,337.0,299.3918152,0.9,3.0,330.4,13 / 22,1787,2017-05-30 21:27:59:939
-0.041,-0.708,10.108,-0.109,-0.449,9.807,0.014,-0.531,-0.082,3.2,-12.5,-31.7,190.5,2.7,0.6,51.96,39.34713,16.1939,337.0,299.3918152,0.9,3.0,330.4,13 / 22,1795,2017-05-30 21:27:59:947
-0.041,-0.708,10.108,-0.109,-0.449,9.807,0.014,-0.531,-0.082,3.2,-12.5,-31.7,190.5,2.7,0.6,51.96,39.34713,16.1939,337.0,299.3918152,0.9,3.0,330.4,13 / 22,1806,2017-05-30 21:27:59:958
-0.051,-0.842,9.548,-0.109,-0.449,9.807,0.068,-0.245,0.3,3.2,-12.5,-31.7,190.5,2.7,0.6,51.96,39.34713,16.1939,337.0,299.3918152,0.9,3.0,330.4,13 / 22,1816,2017-05-30 21:27:59:968
0.045,-0.612,10.192,-0.123,-0.463,9.807,0.082,-0.368,-0.259,3.0,-12.5,-31.4,191.2,2.6,0.6,51.96,39.34713,16.1939,337.0,299.3918152,0.9,3.0,330.4,13 / 22,1826,2017-05-30 21:27:59:978
0.045,-0.612,10.192,-0.123,-0.463,9.807,0.082,-0.368,-0.259,3.0,-12.5,-31.4,191.2,2.6,0.6,51.96,39.34713,16.1939,337.0,299.3918152,0.9,3.0,330.4,13 / 22,1836,2017-05-30 21:27:59:988
-0.338,-0.918,9.221,-0.123,-0.49,9.807,0.163,-0.109,0.381,3.0,-12.5,-31.4,191.2,2.6,0.6,51.96,39.34713,16.1939,337.0,299.3918152,0.9,3.0,330.4,13 / 22,1846,2017-05-30 21:27:59:998
-0.338,-0.918,9.221,-0.123,-0.49,9.807,0.163,-0.109,0.381,3.0,-12.5,-31.4,191.2,2.6,0.6,51.96,39.34713,16.1939,337.0,299.3918152,0.9,3.0,330.4,13 / 22,1856,2017-05-30 21:28:00:008
-0.07,-0.66,9.772,-0.123,-0.504,9.793,-0.204,-0.409,-0.572,3.2,-12.5,-31.1,190.2,2.9,0.7,51.96,39.34713,16.1939,337.0,299.3918152,0.9,3.0,330.4,13 / 22,1865,2017-05-30 21:28:00:017
-0.07,-0.66,9.772,-0.123,-0.504,9.793,-0.204,-0.409,-0.572,3.2,-12.5,-31.1,190.2,2.9,0.7,51.96,39.34713,16.1939,337.0,299.3918152,0.9,3.0,330.4,13 / 22,1875,2017-05-30 21:28:00:027
-0.367,-0.717,9.632,-0.123,-0.545,9.793,0.136,-0.177,0.422,3.2,-12.6,-31.6,190.2,2.9,0.7,51.96,39.34713,16.1939,337.0,299.3918152,0.9,3.0,330.4,13 / 22,1885,2017-05-30 21:28:00:037
-0.367,-0.717,9.632,-0.123,-0.545,9.793,0.136,-0.177,0.422,3.2,-12.6,-31.6,190.2,2.9,0.7,51.96,39.34713,16.1939,337.0,299.3918152,0.9,3.0,330.4,13 / 22,1895,2017-05-30 21:28:00:047
-0.367,-0.717,9.632,-0.123,-0.545,9.793,0.136,-0.177,0.422,3.2,-12.6,-31.6,190.2,2.9,0.7,51.96,39.34713,16.1939,337.0,299.3918152,0.9,3.0,330.4,13 / 22,1906,2017-05-30 21:28:00:058
-0.022,-0.545,9.641,-0.123,-0.572,9.793,0.027,-0.354,-0.463,3.4,-12.5,-31.9,190.7,3.2,0.7,51.96,39.34713,16.1939,337.0,299.3918152,0.9,3.0,330.4,13 / 22,1916,2017-05-30 21:28:00:068
-0.281,-0.564,9.202,-0.123,-0.572,9.793,0.109,0.027,-0.15,3.4,-12.4,-32.0,190.7,3.2,0.7,51.96,39.34713,16.1939,337.0,299.3918152,0.9,3.0,330.4,13 / 22,1926,2017-05-30 21:28:00:078
-0.281,-0.564,9.202,-0.123,-0.572,9.793,0.109,0.027,-0.15,3.4,-12.4,-32.0,190.7,3.2,0.7,51.96,39.34713,16.1939,337.0,299.3918152,0.9,3.0,330.4,13 / 22,1936,2017-05-30 21:28:00:088
-0.204,-0.411,9.473,-0.123,-0.572,9.793,-0.15,0.014,-0.586,3.7,-12.2,-32.0,194.6,3.3,0.7,51.96,39.34713,16.1939,337.0,299.3918152,0.9,3.0,330.4,13 / 22,1945,2017-05-30 21:28:00:097
-0.204,-0.411,9.473,-0.123,-0.572,9.793,-0.15,0.014,-0.586,3.7,-12.2,-32.0,194.6,3.3,0.7,51.96,39.34713,16.1939,337.0,299.3918152,0.9,3.0,330.4,13 / 22,1955,2017-05-30 21:28:00:107
-0.281,-0.602,9.053,-0.123,-0.599,9.793,0.15,0.014,0.027,3.8,-12.2,-31.9,194.6,3.3,0.7,51.96,39.34713,16.1939,337.0,299.3918152,0.9,3.0,330.4,13 / 22,1965,2017-05-30 21:28:00:117
-0.223,-0.497,9.651,-0.123,-0.627,9.793,-0.15,0.027,-0.735,3.8,-12.2,-31.8,194.6,3.3,0.7,51.96,39.34713,16.1939,337.0,299.3918152,0.9,3.0,330.4,13 / 22,1976,2017-05-30 21:28:00:128
-0.223,-0.497,9.651,-0.123,-0.627,9.793,-0.15,0.027,-0.735,3.8,-12.2,-31.8,194.6,3.3,0.7,51.96,39.34713,16.1939,337.0,299.3918152,0.9,3.0,330.4,13 / 22,1986,2017-05-30 21:28:00:138
-0.463,-0.612,9.034,-0.123,-0.64,9.793,-0.095,0.15,-0.136,4.4,-12.2,-31.9,194.4,3.7,0.7,53.78,39.34713,16.1939,337.0,299.3918152,0.9,3.0,330.4,13 / 22,1995,2017-05-30 21:28:00:147
-0.463,-0.612,9.034,-0.123,-0.64,9.793,-0.095,0.15,-0.136,4.4,-12.2,-31.9,194.4,3.7,0.7,53.78,39.34713,16.1939,337.0,299.3918152,0.9,3.0,330.4,13 / 22,2005,2017-05-30 21:28:00:157
0.045,-0.229,9.473,-0.123,-0.654,9.793,0.15,0.463,-0.518,4.6,-12.2,-31.9,194.4,3.7,0.7,53.78,39.34713,16.1939,337.0,299.3918152,0.9,3.0,330.4,13 / 22,2016,2017-05-30 21:28:00:168
-0.261,-0.181,9.361,-0.123,-0.667,9.793,0.163,0.449,-0.327,4.7,-12.2,-31.9,194.4,3.7,0.7,53.78,39.34713,16.1939,337.0,299.3918152,0.9,3.0,330.4,13 / 22,2025,2017-05-30 21:28:00:177
-0.261,-0.181,9.361,-0.123,-0.667,9.793,0.163,0.449,-0.327,4.7,-12.2,-31.9,194.4,3.7,0.7,53.78,39.34713,16.1939,337.0,299.3918152,0.9,3.0,330.4,13 / 22,2035,2017-05-30 21:28:00:187
-0.137,-0.057,9.707,-0.123,-0.667,9.793,-0.136,0.49,-0.436,5.0,-12.4,-32.2,198.0,3.9,0.7,53.78,39.34713,16.1939,337.0,299.3918152,0.9,3.0,330.4,13 / 22,2046,2017-05-30 21:28:00:198
-0.137,-0.057,9.707,-0.123,-0.667,9.793,-0.136,0.49,-0.436,5.0,-12.4,-32.2,198.0,3.9,0.7,53.78,39.34713,16.1939,337.0,299.3918152,0.9,3.0,330.4,13 / 22,2056,2017-05-30 21:28:00:208
-0.376,-0.047,9.398,-0.123,-0.667,9.793,-0.354,0.327,-0.449,5.2,-12.3,-31.9,198.0,3.9,0.7,53.78,39.34713,16.1939,337.0,299.3918152,0.9,3.0,330.4,13 / 22,2066,2017-05-30 21:28:00:218
-0.338,-0.009,9.127,-0.123,-0.613,9.793,-0.245,0.572,-0.395,5.0,-12.1,-31.1,198.0,3.9,0.7,53.78,39.34713,16.1939,337.0,299.3918152,0.9,3.0,330.4,13 / 22,2076,2017-05-30 21:28:00:228
-0.338,-0.009,9.127,-0.123,-0.613,9.793,-0.245,0.572,-0.395,5.0,-12.1,-31.1,198.0,3.9,0.7,53.78,39.34713,16.1939,337.0,299.3918152,0.9,3.0,330.4,13 / 22,2086,2017-05-30 21:28:00:238
-0.319,-0.057,9.651,-0.123,-0.558,9.793,-0.204,0.558,-0.667,5.2,-12.1,-31.1,198.3,3.6,0.7,53.78,39.34713,16.1939,337.0,299.3918152,0.9,3.0,330.4,13 / 22,2096,2017-05-30 21:28:00:248
-0.319,-0.057,9.651,-0.123,-0.558,9.793,-0.204,0.558,-0.667,5.2,-12.1,-31.1,198.3,3.6,0.7,53.78,39.34713,16.1939,337.0,299.3918152,0.9,3.0,330.4,13 / 22,2105,2017-05-30 21:28:00:257
-0.903,-0.085,9.268,-0.15,-0.504,9.793,-0.163,0.449,-0.136,5.2,-11.9,-30.7,198.3,3.6,0.7,53.78,39.34713,16.1939,337.0,299.3918152,0.9,3.0,330.4,13 / 22,2115,2017-05-30 21:28:00:267
-0.07,0.202,10.202,-0.163,-0.477,9.807,-0.735,0.395,-0.545,5.4,-11.8,-30.8,198.3,3.6,0.7,53.78,39.34713,16.1939,337.0,299.3918152,0.9,3.0,330.4,13 / 22,2125,2017-05-30 21:28:00:277
-0.07,0.202,10.202,-0.163,-0.477,9.807,-0.735,0.395,-0.545,5.4,-11.8,-30.8,198.3,3.6,0.7,53.78,39.34713,16.1939,337.0,299.3918152,0.9,3.0,330.4,13 / 22,2136,2017-05-30 21:28:00:288
-0.261,0.719,9.342,-0.204,-0.395,9.807,0.136,0.586,0.395,5.6,-11.9,-31.4,202.1,2.8,1.0,53.78,39.34713,16.1939,337.0,299.3918152,0.9,3.0,330.4,13 / 22,2146,2017-05-30 21:28:00:298
-0.261,0.719,9.342,-0.204,-0.395,9.807,0.136,0.586,0.395,5.6,-11.9,-31.4,202.1,2.8,1.0,53.78,39.34713,16.1939,337.0,299.3918152,0.9,3.0,330.4,13 / 22,2156,2017-05-30 21:28:00:308
-0.52,0.729,9.651,-0.245,-0.327,9.807,-0.014,1.035,-0.463,5.2,-11.9,-32.2,202.1,2.8,1.0,53.78,39.34713,16.1939,337.0,299.3918152,0.9,3.0,330.4,13 / 22,2166,2017-05-30 21:28:00:318
-0.051,1.284,10.361,-0.245,-0.327,9.807,-0.014,1.035,-0.463,5.2,-11.9,-32.2,202.1,2.8,1.0,53.78,39.34713,16.1939,337.0,299.3918152,0.9,3.0,330.4,13 / 22,2177,2017-05-30 21:28:00:329
-0.051,1.284,10.361,-0.272,-0.218,9.807,-0.068,1.485,-0.15,5.2,-11.8,-32.5,197.8,1.9,1.4,53.78,39.34713,16.1939,337.0,299.3918152,0.9,3.0,330.4,13 / 22,2186,2017-05-30 21:28:00:338
-0.903,1.007,9.847,-0.272,-0.15,9.807,0.232,1.43,0.558,5.2,-11.9,-32.5,197.8,1.9,1.4,53.78,39.34713,16.1939,337.0,299.3918152,0.9,3.0,330.4,13 / 22,2196,2017-05-30 21:28:00:348
-0.903,1.007,9.847,-0.272,-0.15,9.807,0.232,1.43,0.558,5.2,-11.9,-32.5,197.8,1.9,1.4,53.78,39.34713,16.1939,337.0,299.3918152,0.9,3.0,330.4,13 / 22,2207,2017-05-30 21:28:00:359
-0.491,1.026,10.604,-0.286,-0.014,9.807,-0.613,1.008,0.041,5.5,-11.9,-32.3,197.8,1.9,1.4,53.78,39.34713,16.1939,337.0,299.3918152,0.9,3.0,330.4,13 / 22,2216,2017-05-30 21:28:00:368
-0.3,0.911,10.211,-0.3,0.054,9.807,0.368,0.981,0.681,5.5,-11.8,-32.5,202.8,0.1,1.7,53.78,39.34713,16.1939,337.0,299.3918152,0.9,3.0,330.4,13 / 22,2226,2017-05-30 21:28:00:378
-0.3,0.911,10.211,-0.3,0.054,9.807,0.368,0.981,0.681,5.5,-11.8,-32.5,202.8,0.1,1.7,53.78,39.34713,16.1939,337.0,299.3918152,0.9,3.0,330.4,13 / 22,2236,2017-05-30 21:28:00:388
-0.242,1.054,10.351,-0.313,0.177,9.807,0.014,0.722,0.409,6.0,-11.6,-32.0,202.8,0.1,1.7,53.78,39.34713,16.1939,337.0,299.3918152,0.9,3.0,330.4,13 / 22,2245,2017-05-30 21:28:00:397
-0.242,1.054,10.351,-0.313,0.177,9.807,0.014,0.722,0.409,6.0,-11.6,-32.0,202.8,0.1,1.7,53.78,39.34713,16.1939,337.0,299.3918152,0.9,3.0,330.4,13 / 22,2256,2017-05-30 21:28:00:408
-0.166,1.083,10.426,-0.313,0.232,9.807,-0.109,0.79,-0.191,5.8,-11.6,-31.7,203.5,-1.0,1.8,53.78,39.34713,16.1939,337.0,299.3918152,0.9,3.0,330.4,13 / 22,2265,2017-05-30 21:28:00:417
-0.166,1.083,10.426,-0.313,0.232,9.807,-0.109,0.79,-0.191,5.8,-11.6,-31.7,203.5,-1.0,1.8,53.78,39.34713,16.1939,337.0,299.3918152,0.9,3.0,330.4,13 / 22,2276,2017-05-30 21:28:00:428
-0.558,0.547,9.912,-0.327,0.341,9.807,0.163,0.735,0.613,5.9,-10.9,-31.8,203.5,-1.0,1.8,53.78,39.34713,16.1939,337.0,299.3918152,0.9,3.0,330.4,13 / 22,2286,2017-05-30 21:28:00:438
-0.07,0.231,10.099,-0.341,0.436,9.793,-0.218,0.109,0.123,6.1,-10.4,-31.8,203.5,-1.0,1.8,53.78,39.34713,16.1939,337.0,299.3918152,0.9,3.0,330.4,13 / 22,2295,2017-05-30 21:28:00:447
-0.07,0.231,10.099,-0.341,0.436,9.793,-0.218,0.109,0.123,6.1,-10.4,-31.8,203.5,-1.0,1.8,53.78,39.34713,16.1939,337.0,299.3918152,0.9,3.0,330.4,13 / 22,2306,2017-05-30 21:28:00:458
-0.415,0.24,9.426,-0.341,0.531,9.793,0.272,-0.313,0.3,5.7,-10.7,-31.4,207.1,-2.5,2.0,55.61,39.34713,16.1939,337.0,299.3918152,0.9,3.0,330.4,13 / 22,2316,2017-05-30 21:28:00:468
-0.271,0.154,9.576,-0.341,0.531,9.793,0.272,-0.313,0.3,5.7,-10.7,-31.4,207.1,-2.5,2.0,55.61,39.34713,16.1939,337.0,299.3918152,0.9,3.0,330.4,13 / 22,2328,2017-05-30 21:28:00:480
-0.271,0.154,9.576,-0.354,0.572,9.793,0.449,-0.395,-0.109,5.9,-10.2,-32.2,207.1,-2.5,2.0,55.61,39.34713,16.1939,337.0,299.3918152,0.9,3.0,330.4,13 / 22,2335,2017-05-30 21:28:00:487
-0.271,0.154,9.576,-0.354,0.572,9.793,0.449,-0.395,-0.109,5.9,-10.2,-32.2,207.1,-2.5,2.0,55.61,39.34713,16.1939,337.0,299.3918152,0.9,3.0,330.4,13 / 22,2345,2017-05-30 21:28:00:497
0.083,-0.238,9.071,-0.354,0.599,9.793,0.095,-0.449,-0.218,6.0,-10.6,-32.2,208.0,-3.3,2.1,55.61,39.34713,16.1939,337.0,299.3918152,0.9,3.0,330.4,13 / 22,2355,2017-05-30 21:28:00:507
0.562,-0.344,9.875,-0.354,0.613,9.793,0.436,-0.844,-0.722,6.1,-11.3,-32.1,208.0,-3.3,2.1,55.61,39.34713,16.1939,337.0,299.3918152,0.9,3.0,330.4,13 / 22,2365,2017-05-30 21:28:00:517
0.562,-0.344,9.875,-0.354,0.613,9.793,0.436,-0.844,-0.722,6.1,-11.3,-32.1,208.0,-3.3,2.1,55.61,39.34713,16.1939,337.0,299.3918152,0.9,3.0,330.4,13 / 22,2375,2017-05-30 21:28:00:527
-0.108,-0.162,9.155,-0.341,0.627,9.793,0.014,-0.586,-0.477,6.1,-11.2,-31.8,208.0,-3.3,2.1,55.61,39.34713,16.1939,337.0,299.3918152,0.9,3.0,330.4,13 / 22,2385,2017-05-30 21:28:00:537
0.591,-0.258,9.51,-0.327,0.64,9.793,0.232,-0.79,-0.64,6.4,-10.3,-31.8,211.6,-3.7,2.0,55.61,39.34713,16.1939,337.0,299.3918152,0.9,3.0,330.4,13 / 22,2395,2017-05-30 21:28:00:547
0.591,-0.258,9.51,-0.327,0.64,9.793,0.232,-0.79,-0.64,6.4,-10.3,-31.8,211.6,-3.7,2.0,55.61,39.34713,16.1939,337.0,299.3918152,0.9,3.0,330.4,13 / 22,2405,2017-05-30 21:28:00:557
0.217,-0.248,9.52,-0.272,0.64,9.793,0.858,-0.885,-0.286,6.1,-10.4,-31.4,211.6,-3.7,2.0,55.61,39.34713,16.1939,337.0,299.3918152,0.9,3.0,330.4,13 / 22,2416,2017-05-30 21:28:00:568
0.217,-0.248,9.52,-0.272,0.64,9.793,0.858,-0.885,-0.286,6.1,-10.4,-31.4,211.6,-3.7,2.0,55.61,39.34713,16.1939,337.0,299.3918152,0.9,3.0,330.4,13 / 22,2426,2017-05-30 21:28:00:578
0.237,-0.219,9.118,-0.245,0.613,9.793,0.449,-0.858,-0.272,6.2,-10.1,-31.4,212.9,-3.7,1.6,55.61,39.34713,16.1939,337.0,299.3918152,0.9,3.0,330.4,13 / 22,2436,2017-05-30 21:28:00:588
0.658,-0.277,9.305,-0.204,0.531,9.793,0.436,-0.749,-0.681,6.7,-8.9,-30.5,212.9,-3.7,1.6,55.61,39.34713,16.1939,337.0,299.3918152,0.9,3.0,330.4,13 / 22,2446,2017-05-30 21:28:00:598
0.658,-0.277,9.305,-0.204,0.531,9.793,0.436,-0.749,-0.681,6.7,-8.9,-30.5,212.9,-3.7,1.6,55.61,39.34713,16.1939,337.0,299.3918152,0.9,3.0,330.4,13 / 22,2456,2017-05-30 21:28:00:608
-0.051,-0.631,9.062,-0.177,0.477,9.807,0.327,-0.926,-0.15,6.7,-8.9,-30.5,212.9,-3.7,1.6,55.61,39.34713,16.1939,337.0,299.3918152,0.9,3.0,330.4,13 / 22,2466,2017-05-30 21:28:00:618
0.055,-0.43,9.436,-0.123,0.341,9.807,0.082,-0.967,-0.749,7.0,-9.2,-29.7,220.6,-2.8,1.0,55.61,39.34713,16.1939,337.0,299.3918152,0.9,3.0,330.4,13 / 22,2476,2017-05-30 21:28:00:628
0.055,-0.43,9.436,-0.123,0.341,9.807,0.082,-0.967,-0.749,7.0,-9.2,-29.7,220.6,-2.8,1.0,55.61,39.34713,16.1939,337.0,299.3918152,0.9,3.0,330.4,13 / 22,2486,2017-05-30 21:28:00:638
0.313,-0.516,9.52,-0.082,0.232,9.807,0.136,-0.654,-0.368,7.6,-9.1,-29.2,220.6,-2.8,1.0,55.61,39.34713,16.1939,337.0,299.3918152,0.9,3.0,330.4,13 / 22,2496,2017-05-30 21:28:00:648
0.313,-0.516,9.52,-0.082,0.232,9.807,0.136,-0.654,-0.368,7.6,-9.1,-29.2,220.6,-2.8,1.0,55.61,39.34713,16.1939,337.0,299.3918152,0.9,3.0,330.4,13 / 22,2506,2017-05-30 21:28:00:658
0.217,0.384,9.595,-0.054,0.163,9.807,0.245,-0.123,-0.449,7.6,-9.0,-28.9,223.0,-1.4,0.5,55.61,39.34713,16.1939,337.0,299.3918152,0.9,3.0,330.4,13 / 22,2516,2017-05-30 21:28:00:668
0.217,0.384,9.595,-0.054,0.163,9.807,0.245,-0.123,-0.449,7.6,-9.0,-28.9,223.0,-1.4,0.5,55.61,39.34713,16.1939,337.0,299.3918152,0.9,3.0,330.4,13 / 22,2526,2017-05-30 21:28:00:678
0.668,0.135,9.118,0.0,0.068,9.807,0.204,0.313,-0.218,7.2,-9.5,-28.9,223.0,-1.4,0.5,55.61,39.34713,16.1939,337.0,299.3918152,0.9,3.0,330.4,13 / 22,2536,2017-05-30 21:28:00:688
1.28,0.489,9.978,0.054,-0.014,9.807,0.613,0.136,-0.695,7.4,-9.2,-28.9,223.0,-1.4,0.5,55.61,39.34713,16.1939,337.0,299.3918152,0.9,3.0,330.4,13 / 22,2546,2017-05-30 21:28:00:698
1.28,0.489,9.978,0.054,-0.014,9.807,0.613,0.136,-0.695,7.4,-9.2,-28.9,223.0,-1.4,0.5,55.61,39.34713,16.1939,337.0,299.3918152,0.9,3.0,330.4,13 / 22,2556,2017-05-30 21:28:00:708
-0.577,-0.535,9.763,0.082,-0.041,9.807,-0.572,-0.368,-0.054,7.4,-9.1,-29.1,218.4,0.1,-0.3,55.61,39.34713,16.1939,337.0,299.3918152,0.9,3.0,330.4,13 / 22,2566,2017-05-30 21:28:00:718
-0.577,-0.535,9.763,0.082,-0.041,9.807,-0.572,-0.368,-0.054,7.4,-9.1,-29.1,218.4,0.1,-0.3,55.61,39.34713,16.1939,337.0,299.3918152,0.9,3.0,330.4,13 / 22,2576,2017-05-30 21:28:00:728
-0.577,-0.535,9.763,0.082,-0.041,9.807,-0.572,-0.368,-0.054,7.4,-9.1,-29.1,218.4,0.1,-0.3,55.61,39.34713,16.1939,337.0,299.3918152,0.9,3.0,330.4,13 / 22,2589,2017-05-30 21:28:00:741
-0.376,-0.286,9.978,0.15,-0.109,9.807,0.3,0.722,-0.49,7.3,-8.5,-29.2,218.4,0.1,-0.3,55.61,39.34713,16.1939,337.0,299.3918152,0.9,3.0,330.4,13 / 22,2595,2017-05-30 21:28:00:747
0.476,0.805,9.155,0.177,-0.136,9.807,0.776,0.94,0.327,7.5,-8.5,-29.2,225.4,0.6,-0.9,55.61,39.34711,16.19394,337.0,299.3918152,8.0,3.0,144.3,13 / 22,2605,2017-05-30 21:28:00:757
-0.261,0.374,9.875,0.177,-0.136,9.807,0.776,0.94,0.327,7.5,-8.5,-29.2,225.4,0.6,-0.9,55.61,39.34711,16.19394,337.0,299.3918152,8.0,3.0,144.3,13 / 22,2618,2017-05-30 21:28:00:770
-0.261,0.374,9.875,0.177,-0.136,9.807,0.776,0.94,0.327,7.5,-8.5,-29.2,225.4,0.6,-0.9,55.61,39.34711,16.19394,337.0,299.3918152,8.0,3.0,144.3,13 / 22,2625,2017-05-30 21:28:00:777
-0.261,0.374,9.875,0.177,-0.136,9.807,0.776,0.94,0.327,7.5,-8.5,-29.2,225.4,0.6,-0.9,55.61,39.34711,16.19394,337.0,299.3918152,8.0,3.0,144.3,13 / 22,2636,2017-05-30 21:28:00:788
-0.261,0.374,9.875,0.177,-0.136,9.807,0.776,0.94,0.327,7.5,-8.5,-29.2,225.4,0.6,-0.9,55.61,39.34711,16.19394,337.0,299.3918152,8.0,3.0,144.3,13 / 22,2646,2017-05-30 21:28:00:798
-0.261,0.374,9.875,0.177,-0.136,9.807,0.776,0.94,0.327,7.5,-8.5,-29.2,225.4,0.6,-0.9,55.61,39.34711,16.19394,337.0,299.3918152,8.0,3.0,144.3,13 / 22,2656,2017-05-30 21:28:00:808
-0.261,0.374,9.875,0.177,-0.136,9.807,0.776,0.94,0.327,7.5,-8.5,-29.2,225.4,0.6,-0.9,55.61,39.34711,16.19394,337.0,299.3918152,8.0,3.0,144.3,13 / 22,2666,2017-05-30 21:28:00:818
0.83,1.007,10.062,0.191,-0.136,9.807,0.272,0.94,-0.654,7.3,-8.7,-29.2,218.7,0.8,-1.0,55.61,39.34711,16.19394,337.0,299.3918152,8.0,3.0,144.3,13 / 22,2677,2017-05-30 21:28:00:829
0.83,1.007,10.062,0.191,-0.136,9.807,0.272,0.94,-0.654,7.3,-8.7,-29.2,218.7,0.8,-1.0,55.61,39.34711,16.19394,337.0,299.3918152,8.0,3.0,144.3,13 / 22,2687,2017-05-30 21:28:00:839
0.83,1.007,10.062,0.191,-0.136,9.807,0.272,0.94,-0.654,7.3,-8.7,-29.2,218.7,0.8,-1.0,55.61,39.34711,16.19394,337.0,299.3918152,8.0,3.0,144.3,13 / 22,2695,2017-05-30 21:28:00:847
0.696,1.074,9.529,0.232,0.041,9.807,-0.49,0.177,-0.341,7.6,-8.1,-28.7,218.7,0.8,-1.0,58.35,39.34711,16.19394,337.0,299.3918152,8.0,3.0,144.3,13 / 22,2705,2017-05-30 21:28:00:857
0.696,1.074,9.529,0.232,0.041,9.807,-0.49,0.177,-0.341,7.6,-8.1,-28.7,218.7,0.8,-1.0,58.35,39.34711,16.19394,337.0,299.3918152,8.0,3.0,144.3,13 / 22,2716,2017-05-30 21:28:00:868
-0.539,0.078,10.015,0.232,0.136,9.807,-0.014,0.0,0.708,7.5,-7.9,-28.7,227.8,-0.2,-1.4,58.35,39.34711,16.19394,337.0,299.3918152,8.0,3.0,144.3,13 / 22,2726,2017-05-30 21:28:00:878
-0.194,0.173,10.772,0.232,0.136,9.807,-0.014,0.0,0.708,7.5,-7.9,-28.7,227.8,-0.2,-1.4,58.35,39.34711,16.19394,337.0,299.3918152,8.0,3.0,144.3,13 / 22,2735,2017-05-30 21:28:00:887
-0.194,0.173,10.772,0.232,0.136,9.807,-0.014,0.0,0.708,7.5,-7.9,-28.7,227.8,-0.2,-1.4,58.35,39.34711,16.19394,337.0,299.3918152,8.0,3.0,144.3,13 / 22,2745,2017-05-30 21:28:00:897
0.581,0.796,10.071,0.232,0.272,9.807,0.395,0.531,0.082,7.4,-7.3,-28.5,227.8,-0.2,-1.4,58.35,39.34711,16.19394,337.0,299.3918152,8.0,3.0,144.3,13 / 22,2755,2017-05-30 21:28:00:907
0.668,0.336,9.978,0.232,0.341,9.807,0.341,0.449,0.259,7.7,-7.6,-28.5,230.2,-1.6,-1.4,58.35,39.34711,16.19394,337.0,299.3918152,8.0,3.0,144.3,13 / 22,2765,2017-05-30 21:28:00:917
0.668,0.336,9.978,0.232,0.341,9.807,0.341,0.449,0.259,7.7,-7.6,-28.5,230.2,-1.6,-1.4,58.35,39.34711,16.19394,337.0,299.3918152,8.0,3.0,144.3,13 / 22,2775,2017-05-30 21:28:00:927
0.668,0.336,9.978,0.232,0.341,9.807,0.341,0.449,0.259,7.7,-7.6,-28.5,230.2,-1.6,-1.4,58.35,39.34711,16.19394,337.0,299.3918152,8.0,3.0,144.3,13 / 22,2786,2017-05-30 21:28:00:938
0.064,-0.028,9.987,0.218,0.381,9.807,0.449,-0.054,0.177,7.5,-7.6,-28.9,230.2,-1.6,-1.4,58.35,39.34711,16.19394,337.0,299.3918152,8.0,3.0,144.3,13 / 22,2796,2017-05-30 21:28:00:948
0.256,-0.325,9.529,0.218,0.409,9.807,0.123,-0.49,0.613,7.6,-7.4,-29.0,235.8,-2.2,-1.3,58.35,39.34711,16.19394,337.0,299.3918152,8.0,3.0,144.3,13 / 22,2806,2017-05-30 21:28:00:958
0.256,-0.325,9.529,0.218,0.409,9.807,0.123,-0.49,0.613,7.6,-7.4,-29.0,235.8,-2.2,-1.3,58.35,39.34711,16.19394,337.0,299.3918152,8.0,3.0,144.3,13 / 22,2816,2017-05-30 21:28:00:968
0.399,-0.085,10.277,0.204,0.422,9.807,0.041,-0.735,-0.272,7.6,-7.5,-29.0,235.8,-2.2,-1.3,58.35,39.34711,16.19394,337.0,299.3918152,8.0,3.0,144.3,13 / 22,2826,2017-05-30 21:28:00:978
0.399,-0.085,10.277,0.204,0.422,9.807,0.041,-0.735,-0.272,7.6,-7.5,-29.0,235.8,-2.2,-1.3,58.35,39.34711,16.19394,337.0,299.3918152,8.0,3.0,144.3,13 / 22,2836,2017-05-30 21:28:00:988
0.332,-0.133,9.286,0.204,0.422,9.807,0.191,-0.504,0.477,7.5,-7.1,-29.3,236.2,-2.5,-1.2,58.35,39.34711,16.19394,337.0,299.3918152,8.0,3.0,144.3,13 / 22,2846,2017-05-30 21:28:00:998
0.332,-0.133,9.286,0.204,0.422,9.807,0.191,-0.504,0.477,7.5,-7.1,-29.3,236.2,-2.5,-1.2,58.35,39.34711,16.19394,337.0,299.3918152,8.0,3.0,144.3,13 / 22,2856,2017-05-30 21:28:01:008
0.735,0.231,9.912,0.204,0.422,9.807,0.123,-0.545,-0.518,7.6,-6.8,-29.3,236.2,-2.5,-1.2,58.35,39.34711,16.19394,337.0,299.3918152,8.0,3.0,144.3,13 / 22,2866,2017-05-30 21:28:01:018
0.735,0.231,9.912,0.204,0.422,9.807,0.123,-0.545,-0.518,7.6,-6.8,-29.3,236.2,-2.5,-1.2,58.35,39.34711,16.19394,337.0,299.3918152,8.0,3.0,144.3,13 / 22,2876,2017-05-30 21:28:01:028
0.658,0.499,9.174,0.191,0.381,9.807,0.531,-0.163,0.109,8.0,-6.8,-29.2,236.2,-2.5,-1.2,58.35,39.34711,16.19394,337.0,299.3918152,8.0,3.0,144.3,13 / 22,2886,2017-05-30 21:28:01:038
0.658,0.499,9.174,0.191,0.381,9.807,0.531,-0.163,0.109,8.0,-6.8,-29.2,236.2,-2.5,-1.2,58.35,39.34711,16.19394,337.0,299.3918152,8.0,3.0,144.3,13 / 22,2896,2017-05-30 21:28:01:048
0.735,0.882,9.651,0.204,0.327,9.807,0.449,0.163,-0.627,8.6,-6.5,-29.0,236.2,-2.5,-1.2,58.35,39.34711,16.19394,337.0,299.3918152,8.0,3.0,144.3,13 / 22,2907,2017-05-30 21:28:01:059
0.735,0.882,9.651,0.204,0.327,9.807,0.449,0.163,-0.627,8.6,-6.5,-29.0,236.2,-2.5,-1.2,58.35,39.34711,16.19394,337.0,299.3918152,8.0,3.0,144.3,13 / 22,2916,2017-05-30 21:28:01:068
0.735,0.882,9.651,0.204,0.327,9.807,0.449,0.163,-0.627,8.6,-6.5,-29.0,236.2,-2.5,-1.2,58.35,39.34711,16.19394,337.0,299.3918152,8.0,3.0,144.3,13 / 22,2926,2017-05-30 21:28:01:078
0.304,0.863,9.791,0.204,0.272,9.807,-0.191,0.082,-0.749,9.1,-6.4,-29.0,242.3,-1.9,-1.2,58.35,39.34711,16.19394,337.0,299.3918152,8.0,3.0,144.3,13 / 22,2936,2017-05-30 21:28:01:088
0.304,0.863,9.791,0.204,0.245,9.807,0.095,0.613,-0.014,9.4,-6.2,-28.4,242.3,-1.9,-1.2,58.35,39.34711,16.19394,337.0,299.3918152,8.0,3.0,144.3,13 / 22,2946,2017-05-30 21:28:01:098
0.112,0.767,9.025,0.204,0.245,9.807,0.259,0.681,-0.531,9.4,-6.2,-28.4,242.3,-1.9,-1.2,58.35,39.34711,16.19394,337.0,299.3918152,8.0,3.0,144.3,13 / 22,2961,2017-05-30 21:28:01:113
0.112,0.767,9.025,0.204,0.245,9.807,0.259,0.681,-0.531,9.4,-6.2,-28.4,242.3,-1.9,-1.2,58.35,39.34711,16.19394,337.0,299.3918152,8.0,3.0,144.3,13 / 22,2965,2017-05-30 21:28:01:117
0.371,1.093,9.669,0.204,0.232,9.807,-0.095,0.531,-0.776,9.2,-6.2,-28.4,241.0,-1.4,-1.2,58.35,39.34711,16.19394,337.0,299.3918152,8.0,3.0,144.3,13 / 22,2976,2017-05-30 21:28:01:128
0.371,1.093,9.669,0.204,0.232,9.807,-0.095,0.531,-0.776,9.2,-6.2,-28.4,241.0,-1.4,-1.2,58.35,39.34711,16.19394,337.0,299.3918152,8.0,3.0,144.3,13 / 22,2986,2017-05-30 21:28:01:138
0.39,0.959,9.38,0.218,0.245,9.807,0.15,0.844,-0.136,9.4,-6.2,-28.4,241.0,-1.4,-1.2,58.35,39.34711,16.19394,337.0,299.3918152,8.0,3.0,144.3,13 / 22,2996,2017-05-30 21:28:01:148
0.39,0.959,9.38,0.218,0.245,9.807,0.15,0.844,-0.136,9.4,-6.2,-28.4,241.0,-1.4,-1.2,58.35,39.34711,16.19394,337.0,299.3918152,8.0,3.0,144.3,13 / 22,3006,2017-05-30 21:28:01:158
0.466,1.208,9.866,0.232,0.272,9.807,0.15,0.681,-0.422,9.0,-6.6,-28.2,236.8,-1.4,-1.3,58.35,39.34711,16.19394,337.0,299.3918152,8.0,3.0,144.3,13 / 22,3016,2017-05-30 21:28:01:168
0.466,1.208,9.866,0.232,0.272,9.807,0.15,0.681,-0.422,9.0,-6.6,-28.2,236.8,-1.4,-1.3,58.35,39.34711,16.19394,337.0,299.3918152,8.0,3.0,144.3,13 / 22,3026,2017-05-30 21:28:01:178
0.217,1.054,9.408,0.245,0.327,9.807,0.218,0.872,0.054,8.9,-6.6,-28.4,236.8,-1.4,-1.3,58.35,39.34711,16.19394,337.0,299.3918152,8.0,3.0,144.3,13 / 22,3036,2017-05-30 21:28:01:188
0.217,1.054,9.408,0.245,0.327,9.807,0.218,0.872,0.054,8.9,-6.6,-28.4,236.8,-1.4,-1.3,58.35,39.34711,16.19394,337.0,299.3918152,8.0,3.0,144.3,13 / 22,3046,2017-05-30 21:28:01:198
0.15,1.083,9.931,0.272,0.422,9.807,-0.068,0.627,-0.395,9.2,-6.5,-27.9,237.9,-1.9,-1.4,59.69,39.34711,16.19394,337.0,299.3918152,8.0,3.0,144.3,13 / 22,3056,2017-05-30 21:28:01:208
0.15,1.083,9.931,0.286,0.518,9.793,-0.136,0.558,0.136,9.1,-6.4,-27.4,237.9,-1.9,-1.4,59.69,39.34711,16.19394,337.0,299.3918152,8.0,3.0,144.3,13 / 22,3065,2017-05-30 21:28:01:217
0.15,1.083,9.931,0.286,0.518,9.793,-0.136,0.558,0.136,9.1,-6.4,-27.4,237.9,-1.9,-1.4,59.69,39.34711,16.19394,337.0,299.3918152,8.0,3.0,144.3,13 / 22,3075,2017-05-30 21:28:01:227
0.294,0.93,9.837,0.3,0.572,9.793,0.204,0.49,-0.327,9.4,-6.1,-27.4,237.9,-1.9,-1.4,59.69,39.34711,16.19394,337.0,299.3918152,8.0,3.0,144.3,13 / 22,3085,2017-05-30 21:28:01:237
0.294,0.93,9.837,0.3,0.572,9.793,0.204,0.49,-0.327,9.4,-6.1,-27.4,237.9,-1.9,-1.4,59.69,39.34711,16.19394,337.0,299.3918152,8.0,3.0,144.3,13 / 22,3095,2017-05-30 21:28:01:247
0.323,0.872,9.884,0.3,0.695,9.779,0.068,0.49,0.245,9.7,-6.1,-27.2,247.7,-3.3,-1.8,59.69,39.34711,16.19394,337.0,299.3918152,8.0,3.0,144.3,13 / 22,3105,2017-05-30 21:28:01:257
0.323,0.872,9.884,0.3,0.695,9.779,0.068,0.49,0.245,9.7,-6.1,-27.2,247.7,-3.3,-1.8,59.69,39.34711,16.19394,337.0,299.3918152,8.0,3.0,144.3,13 / 22,3116,2017-05-30 21:28:01:268
0.198,0.623,9.922,0.313,0.79,9.779,-0.054,0.014,-0.245,9.6,-6.1,-27.4,247.7,-3.3,-1.8,59.69,39.34711,16.19394,337.0,299.3918152,8.0,3.0,144.3,13 / 22,3126,2017-05-30 21:28:01:278
0.198,0.623,9.922,0.313,0.79,9.779,-0.054,0.014,-0.245,9.6,-6.1,-27.4,247.7,-3.3,-1.8,59.69,39.34711,16.19394,337.0,299.3918152,8.0,3.0,144.3,13 / 22,3136,2017-05-30 21:28:01:288
0.304,0.461,9.464,0.313,0.872,9.766,0.136,-0.109,0.15,9.9,-5.8,-27.5,251.0,-4.6,-1.8,59.69,39.34711,16.19394,337.0,299.3918152,8.0,3.0,144.3,13 / 22,3145,2017-05-30 21:28:01:297
0.39,0.288,9.501,0.327,0.926,9.766,-0.027,-0.477,-0.3,10.0,-5.7,-27.5,251.0,-4.6,-1.8,59.69,39.34711,16.19394,337.0,299.3918152,8.0,3.0,144.3,13 / 22,3157,2017-05-30 21:28:01:309
0.39,0.288,9.501,0.327,0.926,9.766,-0.027,-0.477,-0.3,10.0,-5.7,-27.5,251.0,-4.6,-1.8,59.69,39.34711,16.19394,337.0,299.3918152,8.0,3.0,144.3,13 / 22,3165,2017-05-30 21:28:01:317
0.39,0.288,9.501,0.327,0.926,9.766,-0.027,-0.477,-0.3,10.0,-5.7,-27.5,251.0,-4.6,-1.8,59.69,39.34711,16.19394,337.0,299.3918152,8.0,3.0,144.3,13 / 22,3176,2017-05-30 21:28:01:328
0.476,0.307,9.557,0.327,0.926,9.766,0.054,-0.64,-0.259,10.0,-5.1,-27.4,257.3,-5.4,-1.9,59.69,39.34711,16.19394,337.0,299.3918152,8.0,3.0,144.3,13 / 22,3186,2017-05-30 21:28:01:338
0.476,0.307,9.557,0.327,0.926,9.766,0.054,-0.64,-0.259,10.0,-5.1,-27.4,257.3,-5.4,-1.9,59.69,39.34711,16.19394,337.0,299.3918152,8.0,3.0,144.3,13 / 22,3196,2017-05-30 21:28:01:348
0.419,0.116,9.258,0.341,0.926,9.766,0.123,-0.627,-0.204,10.4,-4.4,-27.2,257.3,-5.4,-1.9,59.69,39.34711,16.19394,337.0,299.3918152,8.0,3.0,144.3,13 / 22,3206,2017-05-30 21:28:01:358
0.419,0.116,9.258,0.341,0.926,9.766,0.123,-0.627,-0.204,10.4,-4.4,-27.2,257.3,-5.4,-1.9,59.69,39.34711,16.19394,337.0,299.3918152,8.0,3.0,144.3,13 / 22,3216,2017-05-30 21:28:01:368
0.294,0.394,9.548,0.341,0.899,9.766,0.068,-0.79,-0.504,10.3,-4.4,-27.2,262.3,-5.4,-2.0,59.69,39.34711,16.19394,337.0,299.3918152,8.0,3.0,144.3,13 / 22,3226,2017-05-30 21:28:01:378
0.294,0.394,9.548,0.341,0.899,9.766,0.068,-0.79,-0.504,10.3,-4.4,-27.2,262.3,-5.4,-2.0,59.69,39.34711,16.19394,337.0,299.3918152,8.0,3.0,144.3,13 / 22,3235,2017-05-30 21:28:01:387
0.294,0.394,9.548,0.341,0.899,9.766,0.068,-0.79,-0.504,10.3,-4.4,-27.2,262.3,-5.4,-2.0,59.69,39.34711,16.19394,337.0,299.3918152,8.0,3.0,144.3,13 / 22,3246,2017-05-30 21:28:01:398
-0.051,-0.085,9.23,0.341,0.776,9.779,0.109,-0.558,-0.014,10.1,-4.3,-26.8,262.3,-5.4,-2.0,59.69,39.34711,16.19394,337.0,299.3918152,8.0,3.0,144.3,13 / 22,3256,2017-05-30 21:28:01:408
-0.051,-0.085,9.23,0.341,0.776,9.779,0.109,-0.558,-0.014,10.1,-4.3,-26.8,262.3,-5.4,-2.0,59.69,39.34711,16.19394,337.0,299.3918152,8.0,3.0,144.3,13 / 22,3265,2017-05-30 21:28:01:417
-0.051,-0.085,9.23,0.341,0.776,9.779,0.109,-0.558,-0.014,10.1,-4.3,-26.8,262.3,-5.4,-2.0,59.69,39.34711,16.19394,337.0,299.3918152,8.0,3.0,144.3,13 / 22,3276,2017-05-30 21:28:01:428
0.122,0.231,9.38,0.341,0.654,9.779,0.0,-0.449,-0.068,10.3,-4.6,-26.9,255.3,-4.5,-2.0,59.69,39.34711,16.19394,337.0,299.3918152,8.0,3.0,144.3,13 / 22,3285,2017-05-30 21:28:01:437
0.122,0.633,9.688,0.341,0.572,9.793,-0.232,-0.354,-0.409,10.4,-4.2,-26.6,255.3,-4.5,-2.0,59.69,39.34711,16.19394,337.0,299.3918152,8.0,3.0,144.3,13 / 22,3296,2017-05-30 21:28:01:448
0.122,0.633,9.688,0.341,0.572,9.793,-0.232,-0.354,-0.409,10.4,-4.2,-26.6,255.3,-4.5,-2.0,59.69,39.34711,16.19394,337.0,299.3918152,8.0,3.0,144.3,13 / 22,3305,2017-05-30 21:28:01:457
-0.012,0.279,9.529,0.327,0.504,9.793,-0.218,0.123,-0.109,10.6,-4.2,-26.7,255.3,-4.5,-2.0,59.69,39.34711,16.19394,337.0,299.3918152,8.0,3.0,144.3,13 / 22,3315,2017-05-30 21:28:01:467
-0.012,0.279,9.529,0.327,0.504,9.793,-0.218,0.123,-0.109,10.6,-4.2,-26.7,255.3,-4.5,-2.0,59.69,39.34711,16.19394,337.0,299.3918152,8.0,3.0,144.3,13 / 22,3326,2017-05-30 21:28:01:478
-0.194,0.384,10.174,0.313,0.463,9.793,-0.313,-0.191,-0.259,10.6,-4.2,-26.8,257.5,-2.9,-1.9,59.69,39.34711,16.19394,337.0,299.3918152,8.0,3.0,144.3,13 / 22,3336,2017-05-30 21:28:01:488
-0.194,0.384,10.174,0.313,0.463,9.793,-0.313,-0.191,-0.259,10.6,-4.2,-26.8,257.5,-2.9,-1.9,59.69,39.34711,16.19394,337.0,299.3918152,8.0,3.0,144.3,13 / 22,3345,2017-05-30 21:28:01:497
0.141,0.499,9.697,0.286,0.409,9.807,-0.477,-0.027,0.368,10.4,-4.4,-26.6,257.5,-2.9,-1.9,59.69,39.34711,16.19394,337.0,299.3918152,8.0,3.0,144.3,13 / 22,3356,2017-05-30 21:28:01:508
0.141,0.499,9.697,0.286,0.409,9.807,-0.477,-0.027,0.368,10.4,-4.4,-26.6,257.5,-2.9,-1.9,59.69,39.34711,16.19394,337.0,299.3918152,8.0,3.0,144.3,13 / 22,3365,2017-05-30 21:28:01:517
0.007,0.968,10.183,0.245,0.354,9.807,-0.109,0.136,-0.109,10.3,-4.1,-26.9,255.0,-2.4,-1.7,59.69,39.34711,16.19394,337.0,299.3918152,8.0,3.0,144.3,13 / 22,3375,2017-05-30 21:28:01:527
0.007,0.968,10.183,0.245,0.354,9.807,-0.109,0.136,-0.109,10.3,-4.1,-26.9,255.0,-2.4,-1.7,60.73,39.34711,16.19394,337.0,299.3918152,8.0,3.0,144.3,13 / 22,3386,2017-05-30 21:28:01:538
0.189,0.815,9.51,0.218,0.341,9.807,-0.218,0.627,0.381,10.4,-4.1,-26.9,255.0,-2.4,-1.7,60.73,39.34711,16.19394,337.0,299.3918152,8.0,3.0,144.3,13 / 22,3395,2017-05-30 21:28:01:547
0.189,0.815,9.51,0.218,0.341,9.807,-0.218,0.627,0.381,10.4,-4.1,-26.9,255.0,-2.4,-1.7,60.73,39.34711,16.19394,337.0,299.3918152,8.0,3.0,144.3,13 / 22,3406,2017-05-30 21:28:01:558
0.284,1.102,9.856,0.177,0.327,9.807,0.0,0.477,-0.3,10.7,-3.9,-26.8,255.2,-2.0,-1.3,60.73,39.34711,16.19394,337.0,299.3918152,8.0,3.0,144.3,13 / 22,3416,2017-05-30 21:28:01:568
0.284,1.102,9.856,0.177,0.327,9.807,0.0,0.477,-0.3,10.7,-3.9,-26.8,255.2,-2.0,-1.3,60.73,39.34711,16.19394,337.0,299.3918152,8.0,3.0,144.3,13 / 22,3426,2017-05-30 21:28:01:578
-0.003,0.93,9.417,0.163,0.327,9.807,0.109,0.763,0.054,10.9,-3.7,-26.7,255.2,-2.0,-1.3,60.73,39.34711,16.19394,337.0,299.3918152,8.0,3.0,144.3,13 / 22,3436,2017-05-30 21:28:01:588
-0.003,0.93,9.417,0.163,0.327,9.807,0.109,0.763,0.054,10.9,-3.7,-26.7,255.2,-2.0,-1.3,60.73,39.34711,16.19394,337.0,299.3918152,8.0,3.0,144.3,13 / 22,3445,2017-05-30 21:28:01:597
-0.003,0.93,9.417,0.163,0.327,9.807,0.109,0.763,0.054,10.9,-3.7,-26.7,255.2,-2.0,-1.3,60.73,39.34711,16.19394,337.0,299.3918152,8.0,3.0,144.3,13 / 22,3456,2017-05-30 21:28:01:608
0.112,0.614,9.51,0.163,0.354,9.807,-0.163,0.572,-0.395,11.2,-3.4,-26.3,259.4,-1.9,-1.0,60.73,39.34711,16.19394,337.0,299.3918152,8.0,3.0,144.3,13 / 22,3466,2017-05-30 21:28:01:618
0.514,0.92,9.501,0.15,0.422,9.807,-0.041,0.191,-0.3,11.3,-3.1,-26.3,259.4,-1.9,-1.0,60.73,39.34711,16.19394,337.0,299.3918152,8.0,3.0,144.3,13 / 22,3476,2017-05-30 21:28:01:628
0.514,0.92,9.501,0.15,0.422,9.807,-0.041,0.191,-0.3,11.3,-3.1,-26.3,259.4,-1.9,-1.0,60.73,39.34711,16.19394,337.0,299.3918152,8.0,3.0,144.3,13 / 22,3486,2017-05-30 21:28:01:638
0.543,0.671,9.025,0.15,0.49,9.793,0.354,0.422,-0.286,11.3,-3.1,-26.3,259.4,-1.9,-1.0,60.73,39.34711,16.19394,337.0,299.3918152,8.0,3.0,144.3,13 / 22,3496,2017-05-30 21:28:01:648
0.543,0.671,9.025,0.15,0.49,9.793,0.354,0.422,-0.286,11.3,-3.1,-26.3,259.4,-1.9,-1.0,60.73,39.34711,16.19394,337.0,299.3918152,8.0,3.0,144.3,13 / 22,3506,2017-05-30 21:28:01:658
0.706,1.169,9.95,0.177,0.558,9.793,0.354,0.109,-0.763,11.5,-2.9,-26.4,261.5,-2.9,-0.9,60.73,39.34711,16.19394,337.0,299.3918152,8.0,3.0,144.3,13 / 22,3516,2017-05-30 21:28:01:668
0.706,1.169,9.95,0.177,0.558,9.793,0.354,0.109,-0.763,11.5,-2.9,-26.4,261.5,-2.9,-0.9,60.73,39.34711,16.19394,337.0,299.3918152,8.0,3.0,144.3,13 / 22,3526,2017-05-30 21:28:01:678
0.706,1.169,9.95,0.177,0.558,9.793,0.354,0.109,-0.763,11.5,-2.9,-26.4,261.5,-2.9,-0.9,60.73,39.34711,16.19394,337.0,299.3918152,8.0,3.0,144.3,13 / 22,3536,2017-05-30 21:28:01:688
1.367,0.911,9.931,0.245,0.654,9.793,0.463,0.272,-0.177,11.4,-2.6,-26.2,261.5,-2.9,-0.9,60.73,39.34711,16.19394,337.0,299.3918152,8.0,3.0,144.3,13 / 22,3546,2017-05-30 21:28:01:698
1.367,0.911,9.931,0.245,0.654,9.793,0.463,0.272,-0.177,11.4,-2.6,-26.2,261.5,-2.9,-0.9,60.73,39.34711,16.19394,337.0,299.3918152,8.0,3.0,144.3,13 / 22,3556,2017-05-30 21:28:01:708
1.367,0.911,9.931,0.245,0.654,9.793,0.463,0.272,-0.177,11.4,-2.6,-26.2,261.5,-2.9,-0.9,60.73,39.34711,16.19394,337.0,299.3918152,8.0,3.0,144.3,13 / 22,3566,2017-05-30 21:28:01:718
1.242,1.256,9.781,0.313,0.749,9.779,-0.163,0.082,0.354,11.0,-2.8,-26.2,263.7,-3.8,-1.4,60.73,39.34711,16.19394,337.0,299.3918152,8.0,3.0,144.3,13 / 22,3576,2017-05-30 21:28:01:728
0.189,0.604,10.295,0.313,0.749,9.779,-0.163,0.082,0.354,11.0,-2.8,-26.2,263.7,-3.8,-1.4,60.73,39.34711,16.19394,337.0,299.3918152,8.0,3.0,144.3,11 / 20,3587,2017-05-30 21:28:01:739
0.189,0.604,10.295,0.313,0.749,9.779,-0.163,0.082,0.354,11.0,-2.8,-26.2,263.7,-3.8,-1.4,60.73,39.34711,16.19394,337.0,299.3918152,8.0,3.0,144.3,11 / 20,3596,2017-05-30 21:28:01:748
1.146,1.323,10.052,0.395,0.817,9.766,0.749,0.722,0.368,11.1,-2.7,-26.4,263.7,-3.8,-1.4,60.73,39.3471,16.19394,337.0,299.3918152,3.3,3.0,330.4,11 / 20,3605,2017-05-30 21:28:01:757
1.146,1.323,10.052,0.395,0.817,9.766,0.749,0.722,0.368,11.1,-2.7,-26.4,263.7,-3.8,-1.4,60.73,39.3471,16.19394,337.0,299.3918152,3.3,3.0,330.4,11 / 20,3616,2017-05-30 21:28:01:768
0.907,1.256,10.417,0.449,0.858,9.766,0.695,0.463,0.286,11.1,-2.9,-26.6,266.3,-4.8,-2.3,60.73,39.3471,16.19394,337.0,299.3918152,3.3,3.0,330.4,11 / 20,3626,2017-05-30 21:28:01:778
0.907,1.256,10.417,0.449,0.858,9.766,0.695,0.463,0.286,11.1,-2.9,-26.6,266.3,-4.8,-2.3,60.73,39.3471,16.19394,337.0,299.3918152,3.3,3.0,330.4,11 / 20,3636,2017-05-30 21:28:01:788
0.907,1.256,10.417,0.449,0.858,9.766,0.695,0.463,0.286,11.1,-2.9,-26.6,266.3,-4.8,-2.3,60.73,39.3471,16.19394,337.0,299.3918152,3.3,3.0,330.4,11 / 20,3646,2017-05-30 21:28:01:798
0.629,0.499,9.884,0.531,0.899,9.752,0.082,-0.49,-0.014,11.4,-2.8,-26.8,266.3,-4.8,-2.3,60.73,39.3471,16.19394,337.0,299.3918152,3.3,3.0,330.4,11 / 20,3656,2017-05-30 21:28:01:808
0.629,0.499,9.884,0.531,0.899,9.752,0.082,-0.49,-0.014,11.4,-2.8,-26.8,266.3,-4.8,-2.3,60.73,39.3471,16.19394,337.0,299.3918152,3.3,3.0,330.4,11 / 20,3666,2017-05-30 21:28:01:818
0.591,0.125,9.389,0.572,0.913,9.752,0.504,-0.463,0.518,11.0,-3.0,-26.5,267.4,-5.3,-3.1,60.73,39.3471,16.19394,337.0,299.3918152,3.3,3.0,330.4,11 / 20,3675,2017-05-30 21:28:01:827
0.591,0.125,9.389,0.572,0.913,9.752,0.504,-0.463,0.518,11.0,-3.0,-26.5,267.4,-5.3,-3.1,60.73,39.3471,16.19394,337.0,299.3918152,3.3,3.0,330.4,11 / 20,3685,2017-05-30 21:28:01:837
0.715,0.221,9.781,0.613,0.913,9.752,-0.027,-0.79,-0.368,10.9,-2.9,-26.5,267.4,-5.3,-3.1,60.73,39.3471,16.19394,337.0,299.3918152,3.3,3.0,330.4,11 / 20,3696,2017-05-30 21:28:01:848
0.715,0.221,9.781,0.613,0.913,9.752,-0.027,-0.79,-0.368,10.9,-2.9,-26.5,267.4,-5.3,-3.1,60.73,39.3471,16.19394,337.0,299.3918152,3.3,3.0,330.4,11 / 20,3706,2017-05-30 21:28:01:858
0.974,0.068,9.408,0.64,0.872,9.752,0.068,-0.654,0.027,10.7,-2.6,-26.3,267.1,-5.3,-3.6,60.86,39.3471,16.19394,337.0,299.3918152,3.3,3.0,330.4,11 / 20,3715,2017-05-30 21:28:01:867
0.974,0.068,9.408,0.64,0.872,9.752,0.068,-0.654,0.027,10.7,-2.6,-26.3,267.1,-5.3,-3.6,60.86,39.3471,16.19394,337.0,299.3918152,3.3,3.0,330.4,11 / 20,3725,2017-05-30 21:28:01:877
1.185,0.049,9.464,0.654,0.804,9.752,0.313,-0.749,-0.341,10.6,-2.4,-26.0,267.1,-5.3,-3.6,60.86,39.3471,16.19394,337.0,299.3918152,3.3,3.0,330.4,11 / 20,3736,2017-05-30 21:28:01:888
1.185,0.049,9.464,0.654,0.804,9.752,0.313,-0.749,-0.341,10.6,-2.4,-26.0,267.1,-5.3,-3.6,60.86,39.3471,16.19394,337.0,299.3918152,3.3,3.0,330.4,11 / 20,3746,2017-05-30 21:28:01:898
0.84,0.145,9.221,0.667,0.735,9.766,0.518,-0.695,-0.3,11.0,-2.1,-26.1,270.3,-4.7,-3.8,60.86,39.3471,16.19394,337.0,299.3918152,3.3,3.0,330.4,11 / 20,3756,2017-05-30 21:28:01:908
0.84,0.145,9.221,0.667,0.735,9.766,0.518,-0.695,-0.3,11.0,-2.1,-26.1,270.3,-4.7,-3.8,60.86,39.3471,16.19394,337.0,299.3918152,3.3,3.0,330.4,11 / 20,3766,2017-05-30 21:28:01:918
0.553,-0.018,9.081,0.681,0.654,9.766,0.15,-0.518,-0.545,11.3,-2.0,-26.1,270.3,-4.7,-3.8,60.86,39.3471,16.19394,337.0,299.3918152,3.3,3.0,330.4,11 / 20,3776,2017-05-30 21:28:01:928
0.553,-0.018,9.081,0.681,0.654,9.766,0.15,-0.518,-0.545,11.3,-2.0,-26.1,270.3,-4.7,-3.8,60.86,39.3471,16.19394,337.0,299.3918152,3.3,3.0,330.4,11 / 20,3786,2017-05-30 21:28:01:938
0.553,-0.018,9.081,0.681,0.654,9.766,0.15,-0.518,-0.545,11.3,-2.0,-26.1,270.3,-4.7,-3.8,60.86,39.3471,16.19394,337.0,299.3918152,3.3,3.0,330.4,11 / 20,3796,2017-05-30 21:28:01:948
0.486,0.164,9.38,0.708,0.586,9.766,-0.163,-0.599,-0.681,11.8,-1.9,-26.2,268.7,-3.8,-4.0,60.86,39.3471,16.19394,337.0,299.3918152,3.3,3.0,330.4,11 / 20,3805,2017-05-30 21:28:01:957
0.572,0.202,9.725,0.722,0.531,9.766,-0.245,-0.368,-0.381,11.8,-1.7,-25.9,268.7,-3.8,-4.0,60.86,39.3471,16.19394,337.0,299.3918152,3.3,3.0,330.4,11 / 20,3816,2017-05-30 21:28:01:968
0.572,0.202,9.725,0.722,0.531,9.766,-0.245,-0.368,-0.381,11.8,-1.7,-25.9,268.7,-3.8,-4.0,60.86,39.3471,16.19394,337.0,299.3918152,3.3,3.0,330.4,11 / 20,3825,2017-05-30 21:28:01:977
0.572,0.202,9.725,0.722,0.531,9.766,-0.245,-0.368,-0.381,11.8,-1.7,-25.9,268.7,-3.8,-4.0,60.86,39.3471,16.19394,337.0,299.3918152,3.3,3.0,330.4,11 / 20,3835,2017-05-30 21:28:01:987
1.07,1.15,9.781,0.735,0.436,9.779,0.054,0.191,-0.449,11.7,-1.7,-25.6,267.4,-3.1,-4.2,60.86,39.3471,16.19394,337.0,299.3918152,3.3,3.0,330.4,11 / 20,3845,2017-05-30 21:28:01:997
0.696,0.997,9.51,0.749,0.422,9.779,0.313,0.722,0.0,11.5,-1.6,-24.8,267.4,-3.1,-4.2,60.86,39.3471,16.19394,337.0,299.3918152,3.3,3.0,330.4,11 / 20,3855,2017-05-30 21:28:02:007
0.696,0.997,9.51,0.749,0.422,9.779,0.313,0.722,0.0,11.5,-1.6,-24.8,267.4,-3.1,-4.2,60.86,39.3471,16.19394,337.0,299.3918152,3.3,3.0,330.4,11 / 20,3865,2017-05-30 21:28:02:017
0.696,0.997,9.51,0.749,0.422,9.779,0.313,0.722,0.0,11.5,-1.6,-24.8,267.4,-3.1,-4.2,60.86,39.3471,16.19394,337.0,299.3918152,3.3,3.0,330.4,11 / 20,3875,2017-05-30 21:28:02:027
0.849,1.007,9.763,0.749,0.381,9.779,-0.054,0.613,-0.272,11.3,-1.5,-24.5,270.2,-2.5,-4.4,60.86,39.3471,16.19394,337.0,299.3918152,3.3,3.0,330.4,11 / 20,3885,2017-05-30 21:28:02:037
0.849,1.007,9.763,0.749,0.381,9.779,-0.054,0.613,-0.272,11.3,-1.5,-24.5,270.2,-2.5,-4.4,60.86,39.3471,16.19394,337.0,299.3918152,3.3,3.0,330.4,11 / 20,3895,2017-05-30 21:28:02:047
1.118,1.035,9.576,0.749,0.368,9.779,0.095,0.627,-0.014,11.3,-1.7,-24.3,270.2,-2.5,-4.4,60.86,39.3471,16.19394,337.0,299.3918152,3.3,3.0,330.4,11 / 20,3905,2017-05-30 21:28:02:057
1.252,1.035,9.445,0.763,0.354,9.779,0.354,0.681,-0.204,11.0,-1.7,-23.9,264.9,-2.1,-4.4,60.86,39.3471,16.19394,337.0,299.3918152,3.3,3.0,330.4,11 / 20,3915,2017-05-30 21:28:02:067
1.252,1.035,9.445,0.763,0.354,9.779,0.354,0.681,-0.204,11.0,-1.7,-23.9,264.9,-2.1,-4.4,60.86,39.3471,16.19394,337.0,299.3918152,3.3,3.0,330.4,11 / 20,3926,2017-05-30 21:28:02:078
1.252,1.035,9.445,0.763,0.354,9.779,0.354,0.681,-0.204,11.0,-1.7,-23.9,264.9,-2.1,-4.4,60.86,39.3471,16.19394,337.0,299.3918152,3.3,3.0,330.4,11 / 20,3936,2017-05-30 21:28:02:088
1.127,1.265,9.744,0.776,0.368,9.779,0.463,0.667,-0.341,10.9,-1.4,-23.9,264.9,-2.1,-4.4,60.86,39.3471,16.19394,337.0,299.3918152,3.3,3.0,330.4,11 / 20,3945,2017-05-30 21:28:02:097
1.127,1.265,9.744,0.776,0.368,9.779,0.463,0.667,-0.341,10.9,-1.4,-23.9,264.9,-2.1,-4.4,60.86,39.3471,16.19394,337.0,299.3918152,3.3,3.0,330.4,11 / 20,3955,2017-05-30 21:28:02:107
1.252,1.131,9.922,0.804,0.422,9.766,0.313,0.831,-0.027,11.1,-1.3,-24.1,269.4,-2.1,-4.5,60.86,39.3471,16.19394,337.0,299.3918152,3.3,3.0,330.4,11 / 20,3966,2017-05-30 21:28:02:118
1.252,1.131,9.922,0.804,0.422,9.766,0.313,0.831,-0.027,11.1,-1.3,-24.1,269.4,-2.1,-4.5,60.86,39.3471,16.19394,337.0,299.3918152,3.3,3.0,330.4,11 / 20,3975,2017-05-30 21:28:02:127
1.165,1.121,9.352,0.831,0.504,9.766,0.232,0.463,-0.204,11.2,-1.1,-24.7,269.4,-2.1,-4.5,60.86,39.3471,16.19394,337.0,299.3918152,3.3,3.0,330.4,11 / 20,3986,2017-05-30 21:28:02:138
1.165,1.121,9.352,0.831,0.504,9.766,0.232,0.463,-0.204,11.2,-1.1,-24.7,269.4,-2.1,-4.5,60.86,39.3471,16.19394,337.0,299.3918152,3.3,3.0,330.4,11 / 20,3996,2017-05-30 21:28:02:148
1.07,0.815,9.277,0.858,0.599,9.752,0.232,0.654,0.286,11.5,-1.1,-25.1,271.0,-2.9,-4.9,60.86,39.3471,16.19394,337.0,299.3918152,3.3,3.0,330.4,11 / 20,4006,2017-05-30 21:28:02:158
1.07,0.815,9.277,0.858,0.599,9.752,0.232,0.654,0.286,11.5,-1.1,-25.1,271.0,-2.9,-4.9,60.86,39.3471,16.19394,337.0,299.3918152,3.3,3.0,330.4,11 / 20,4016,2017-05-30 21:28:02:168
1.233,1.083,9.94,0.872,0.695,9.752,0.191,0.109,-0.477,11.7,-1.3,-25.0,271.0,-2.9,-4.9,60.86,39.3471,16.19394,337.0,299.3918152,3.3,3.0,330.4,11 / 20,4026,2017-05-30 21:28:02:178
1.233,1.083,9.94,0.872,0.695,9.752,0.191,0.109,-0.477,11.7,-1.3,-25.0,271.0,-2.9,-4.9,60.86,39.3471,16.19394,337.0,299.3918152,3.3,3.0,330.4,11 / 20,4036,2017-05-30 21:28:02:188
1.146,0.786,9.417,0.899,0.763,9.739,0.327,0.313,0.204,11.5,-1.4,-25.1,272.8,-4.1,-5.1,61.4,39.3471,16.19394,337.0,299.3918152,3.3,3.0,330.4,11 / 20,4046,2017-05-30 21:28:02:198
1.146,0.786,9.417,0.899,0.763,9.739,0.327,0.313,0.204,11.5,-1.4,-25.1,272.8,-4.1,-5.1,61.4,39.3471,16.19394,337.0,299.3918152,3.3,3.0,330.4,11 / 20,4055,2017-05-30 21:28:02:207
1.146,0.786,9.417,0.899,0.763,9.739,0.327,0.313,0.204,11.5,-1.4,-25.1,272.8,-4.1,-5.1,61.4,39.3471,16.19394,337.0,299.3918152,3.3,3.0,330.4,11 / 20,4066,2017-05-30 21:28:02:218
1.079,0.882,10.146,0.926,0.844,9.739,0.123,0.027,0.014,11.8,-1.0,-24.5,272.8,-4.1,-5.1,61.4,39.3471,16.19394,337.0,299.3918152,3.3,3.0,330.4,11 / 20,4075,2017-05-30 21:28:02:227
1.079,0.882,10.146,0.926,0.844,9.739,0.123,0.027,0.014,11.8,-1.0,-24.5,272.8,-4.1,-5.1,61.4,39.3471,16.19394,337.0,299.3918152,3.3,3.0,330.4,11 / 20,4088,2017-05-30 21:28:02:240
1.156,0.892,9.548,0.94,0.858,9.725,0.136,0.014,0.422,11.4,-1.0,-24.1,274.2,-4.9,-5.4,61.4,39.3471,16.19394,337.0,299.3918152,3.3,3.0,330.4,11 / 20,4096,2017-05-30 21:28:02:248
1.156,0.892,9.548,0.94,0.858,9.725,0.136,0.014,0.422,11.4,-1.0,-24.1,274.2,-4.9,-5.4,61.4,39.3471,16.19394,337.0,299.3918152,3.3,3.0,330.4,11 / 20,4106,2017-05-30 21:28:02:258
1.414,0.901,9.679,0.994,0.899,9.725,0.381,0.082,0.123,11.6,-0.8,-24.5,274.2,-4.9,-5.4,61.4,39.3471,16.19394,337.0,299.3918152,3.3,3.0,330.4,11 / 20,4116,2017-05-30 21:28:02:268
1.414,0.901,9.679,0.994,0.899,9.725,0.381,0.082,0.123,11.6,-0.8,-24.5,274.2,-4.9,-5.4,61.4,39.3471,16.19394,337.0,299.3918152,3.3,3.0,330.4,11 / 20,4127,2017-05-30 21:28:02:279
1.309,0.681,10.118,1.008,0.913,9.725,0.395,-0.014,-0.041,11.8,-0.8,-24.1,274.3,-5.3,-5.8,61.4,39.3471,16.19394,337.0,299.3918152,3.3,3.0,330.4,11 / 20,4136,2017-05-30 21:28:02:288
1.309,0.681,10.118,1.008,0.913,9.725,0.395,-0.014,-0.041,11.8,-0.8,-24.1,274.3,-5.3,-5.8,61.4,39.3471,16.19394,337.0,299.3918152,3.3,3.0,330.4,11 / 20,4146,2017-05-30 21:28:02:298
1.529,0.7,9.922,1.062,0.926,9.711,0.245,-0.245,0.409,11.8,-0.5,-24.5,274.3,-5.3,-5.8,61.4,39.3471,16.19394,337.0,299.3918152,3.3,3.0,330.4,11 / 20,4156,2017-05-30 21:28:02:308
1.529,0.7,9.922,1.062,0.926,9.711,0.245,-0.245,0.409,11.8,-0.5,-24.5,274.3,-5.3,-5.8,61.4,39.3471,16.19394,337.0,299.3918152,3.3,3.0,330.4,11 / 20,4165,2017-05-30 21:28:02:317
1.529,0.7,9.922,1.062,0.926,9.711,0.245,-0.245,0.409,11.8,-0.5,-24.5,274.3,-5.3,-5.8,61.4,39.3471,16.19394,337.0,299.3918152,3.3,3.0,330.4,11 / 20,4176,2017-05-30 21:28:02:328
1.635,0.623,9.548,1.103,0.94,9.711,0.422,-0.245,0.204,12.1,-0.3,-24.3,278.3,-5.4,-6.2,61.4,39.3471,16.19394,337.0,299.3918152,3.3,3.0,330.4,11 / 20,4185,2017-05-30 21:28:02:337
1.635,0.623,9.548,1.103,0.94,9.711,0.422,-0.245,0.204,12.1,-0.3,-24.3,278.3,-5.4,-6.2,61.4,39.3471,16.19394,337.0,299.3918152,3.3,3.0,330.4,11 / 20,4195,2017-05-30 21:28:02:347
1.635,0.623,9.548,1.103,0.94,9.711,0.422,-0.245,0.204,12.1,-0.3,-24.3,278.3,-5.4,-6.2,61.4,39.3471,16.19394,337.0,299.3918152,3.3,3.0,330.4,11 / 20,4205,2017-05-30 21:28:02:357
1.798,0.738,9.567,1.212,0.926,9.698,0.613,-0.204,0.341,12.1,-0.1,-24.5,278.3,-5.4,-6.2,61.4,39.3471,16.19394,337.0,299.3918152,3.3,3.0,330.4,11 / 20,4216,2017-05-30 21:28:02:368
1.798,0.738,9.567,1.212,0.926,9.698,0.613,-0.204,0.341,12.1,-0.1,-24.5,278.3,-5.4,-6.2,61.4,39.3471,16.19394,337.0,299.3918152,3.3,3.0,330.4,11 / 20,4226,2017-05-30 21:28:02:378
1.903,0.882,9.894,1.212,0.926,9.698,0.749,-0.218,-0.15,11.9,-0.5,-24.2,274.3,-5.4,-7.1,61.4,39.3471,16.19394,337.0,299.3918152,3.3,3.0,330.4,11 / 20,4237,2017-05-30 21:28:02:389
1.903,0.882,9.894,1.212,0.926,9.698,0.749,-0.218,-0.15,11.9,-0.5,-24.2,274.3,-5.4,-7.1,61.4,39.3471,16.19394,337.0,299.3918152,3.3,3.0,330.4,11 / 20,4246,2017-05-30 21:28:02:398
1.903,0.882,9.894,1.212,0.926,9.698,0.749,-0.218,-0.15,11.9,-0.5,-24.2,274.3,-5.4,-7.1,61.4,39.3471,16.19394,337.0,299.3918152,3.3,3.0,330.4,11 / 20,4255,2017-05-30 21:28:02:407
2.133,0.853,10.211,1.308,0.885,9.684,0.627,-0.177,-0.327,11.6,-0.7,-23.9,274.3,-5.4,-7.1,61.4,39.3471,16.19394,337.0,299.3918152,3.3,3.0,330.4,11 / 20,4265,2017-05-30 21:28:02:417
2.133,0.853,10.211,1.308,0.885,9.684,0.627,-0.177,-0.327,11.6,-0.7,-23.9,274.3,-5.4,-7.1,61.4,39.3471,16.19394,337.0,299.3918152,3.3,3.0,330.4,11 / 20,4275,2017-05-30 21:28:02:427
2.133,0.853,10.211,1.308,0.885,9.684,0.627,-0.177,-0.327,11.6,-0.7,-23.9,274.3,-5.4,-7.1,61.4,39.3471,16.19394,337.0,299.3918152,3.3,3.0,330.4,11 / 20,4285,2017-05-30 21:28:02:437
2.114,0.7,9.426,1.403,0.858,9.67,0.654,-0.082,0.15,11.6,-0.7,-23.7,273.8,-5.2,-7.7,61.4,39.3471,16.19394,337.0,299.3918152,3.3,3.0,330.4,11 / 20,4296,2017-05-30 21:28:02:448
2.114,0.7,9.426,1.403,0.858,9.67,0.654,-0.082,0.15,11.6,-0.7,-23.7,273.8,-5.2,-7.7,61.4,39.3471,16.19394,337.0,299.3918152,3.3,3.0,330.4,11 / 20,4305,2017-05-30 21:28:02:457
2.171,0.7,9.632,1.485,0.831,9.657,0.681,0.0,0.123,11.6,-0.5,-23.6,273.8,-5.2,-7.7,61.4,39.3471,16.19394,337.0,299.3918152,3.3,3.0,330.4,11 / 20,4316,2017-05-30 21:28:02:468
2.171,0.7,9.632,1.485,0.831,9.657,0.681,0.0,0.123,11.6,-0.5,-23.6,273.8,-5.2,-7.7,61.4,39.3471,16.19394,337.0,299.3918152,3.3,3.0,330.4,11 / 20,4325,2017-05-30 21:28:02:477
2.171,0.7,9.632,1.485,0.831,9.657,0.681,0.0,0.123,11.6,-0.5,-23.6,273.8,-5.2,-7.7,61.4,39.3471,16.19394,337.0,299.3918152,3.3,3.0,330.4,11 / 20,4336,2017-05-30 21:28:02:488
2.171,0.69,10.006,1.594,0.817,9.643,0.422,-0.15,-0.286,11.5,-0.4,-24.1,276.8,-4.9,-8.7,61.4,39.3471,16.19394,337.0,299.3918152,3.3,3.0,330.4,11 / 20,4346,2017-05-30 21:28:02:498
2.171,0.69,10.006,1.594,0.817,9.643,0.422,-0.15,-0.286,11.5,-0.4,-24.1,276.8,-4.9,-8.7,61.4,39.3471,16.19394,337.0,299.3918152,3.3,3.0,330.4,11 / 20,4356,2017-05-30 21:28:02:508
2.238,0.671,9.408,1.675,0.804,9.63,0.49,-0.123,0.381,11.7,-0.3,-24.4,276.8,-4.9,-8.7,61.4,39.3471,16.19394,337.0,299.3918152,3.3,3.0,330.4,11 / 20,4365,2017-05-30 21:28:02:517
2.267,0.815,9.884,1.73,0.79,9.63,0.504,-0.123,-0.218,11.5,0.2,-24.9,276.8,-4.9,-8.7,61.4,39.3471,16.19394,337.0,299.3918152,3.3,3.0,330.4,11 / 20,4375,2017-05-30 21:28:02:527
2.267,0.815,9.884,1.73,0.79,9.63,0.504,-0.123,-0.218,11.5,0.2,-24.9,276.8,-4.9,-8.7,56.4,39.3471,16.19394,337.0,299.3918152,3.3,3.0,330.4,11 / 20,4386,2017-05-30 21:28:02:538
2.047,0.48,9.342,1.771,0.776,9.616,0.218,-0.014,0.354,11.5,0.1,-25.1,276.8,-4.6,-10.2,56.4,39.3471,16.19394,337.0,299.3918152,3.3,3.0,330.4,11 / 20,4395,2017-05-30 21:28:02:547
2.047,0.48,9.342,1.771,0.776,9.616,0.218,-0.014,0.354,11.5,0.1,-25.1,276.8,-4.6,-10.2,56.4,39.3471,16.19394,337.0,299.3918152,3.3,3.0,330.4,11 / 20,4407,2017-05-30 21:28:02:559
2.066,0.729,9.987,1.839,0.776,9.602,0.204,-0.3,-0.259,11.5,0.3,-24.9,276.8,-4.6,-10.2,56.4,39.3471,16.19394,337.0,299.3918152,3.3,3.0,330.4,11 / 20,4415,2017-05-30 21:28:02:567
2.066,0.729,9.987,1.839,0.776,9.602,0.204,-0.3,-0.259,11.5,0.3,-24.9,276.8,-4.6,-10.2,56.4,39.3471,16.19394,337.0,299.3918152,3.3,3.0,330.4,11 / 20,4426,2017-05-30 21:28:02:578
2.229,0.652,9.744,1.92,0.763,9.589,0.136,-0.027,0.177,11.4,0.4,-24.9,276.5,-4.5,-10.8,56.4,39.3471,16.19394,337.0,299.3918152,3.3,3.0,330.4,11 / 20,4436,2017-05-30 21:28:02:588
2.229,0.652,9.744,1.92,0.763,9.589,0.136,-0.027,0.177,11.4,0.4,-24.9,276.5,-4.5,-10.8,56.4,39.3471,16.19394,337.0,299.3918152,3.3,3.0,330.4,11 / 20,4446,2017-05-30 21:28:02:598
2.229,0.652,9.744,1.975,0.763,9.575,0.245,-0.123,0.163,11.9,0.4,-24.4,276.5,-4.5,-10.8,56.4,39.3471,16.19394,337.0,299.3918152,3.3,3.0,330.4,11 / 20,4455,2017-05-30 21:28:02:607
1.855,0.566,9.557,1.975,0.763,9.575,0.041,-0.068,0.313,12.2,0.6,-24.1,276.5,-4.5,-10.8,56.4,39.3471,16.19394,337.0,299.3918152,3.3,3.0,330.4,11 / 20,4466,2017-05-30 21:28:02:618
1.855,0.566,9.557,1.975,0.763,9.575,0.041,-0.068,0.313,12.2,0.6,-24.1,276.5,-4.5,-10.8,56.4,39.3471,16.19394,337.0,299.3918152,3.3,3.0,330.4,11 / 20,4476,2017-05-30 21:28:02:628
1.836,0.585,9.819,1.989,0.749,9.575,-0.245,-0.177,-0.218,12.3,0.4,-24.4,275.6,-4.5,-11.7,56.4,39.3471,16.19394,337.0,299.3918152,3.3,3.0,330.4,11 / 20,4486,2017-05-30 21:28:02:638
1.836,0.585,9.819,1.989,0.749,9.575,-0.245,-0.177,-0.218,12.3,0.4,-24.4,275.6,-4.5,-11.7,56.4,39.3471,16.19394,337.0,299.3918152,3.3,3.0,330.4,11 / 20,4495,2017-05-30 21:28:02:647
1.836,0.585,9.819,1.989,0.749,9.575,-0.245,-0.177,-0.218,12.3,0.4,-24.4,275.6,-4.5,-11.7,56.4,39.3471,16.19394,337.0,299.3918152,3.3,3.0,330.4,11 / 20,4506,2017-05-30 21:28:02:658
1.405,0.432,9.417,2.002,0.749,9.575,-0.177,-0.177,0.245,12.4,0.5,-24.4,275.6,-4.5,-11.7,56.4,39.3471,16.19394,337.0,299.3918152,3.3,3.0,330.4,11 / 20,4516,2017-05-30 21:28:02:668
1.405,0.432,9.417,2.002,0.749,9.575,-0.177,-0.177,0.245,12.4,0.5,-24.4,275.6,-4.5,-11.7,56.4,39.3471,16.19394,337.0,299.3918152,3.3,3.0,330.4,11 / 20,4525,2017-05-30 21:28:02:677
1.108,0.441,9.8,2.016,0.722,9.575,-0.572,-0.313,-0.136,12.5,0.7,-24.1,278.3,-4.4,-11.8,56.4,39.3471,16.19394,337.0,299.3918152,3.3,3.0,330.4,11 / 20,4535,2017-05-30 21:28:02:687
1.108,0.441,9.8,2.016,0.722,9.575,-0.572,-0.313,-0.136,12.5,0.7,-24.1,278.3,-4.4,-11.8,56.4,39.3471,16.19394,337.0,299.3918152,3.3,3.0,330.4,11 / 20,4545,2017-05-30 21:28:02:697
1.108,0.441,9.8,2.016,0.722,9.575,-0.572,-0.313,-0.136,12.5,0.7,-24.1,278.3,-4.4,-11.8,56.4,39.3471,16.19394,337.0,299.3918152,3.3,3.0,330.4,11 / 20,4555,2017-05-30 21:28:02:707
0.936,0.336,9.389,2.002,0.708,9.575,-0.899,-0.272,0.232,12.1,0.6,-24.1,278.3,-4.4,-11.8,56.4,39.3471,16.19394,337.0,299.3918152,3.3,3.0,330.4,11 / 20,4566,2017-05-30 21:28:02:718
0.62,0.26,9.716,1.934,0.681,9.602,-1.008,-0.354,-0.218,12.4,1.0,-23.7,278.6,-4.1,-11.8,56.4,39.3471,16.19394,337.0,299.3918152,3.3,3.0,330.4,11 / 20,4576,2017-05-30 21:28:02:728
0.495,0.26,9.669,1.839,0.64,9.616,-1.226,-0.381,0.095,13.0,0.9,-23.3,278.6,-4.1,-11.8,56.4,39.3471,16.19394,337.0,299.3918152,3.3,3.0,330.4,11 / 20,4586,2017-05-30 21:28:02:738
0.495,0.26,9.669,1.839,0.64,9.616,-1.226,-0.381,0.095,13.0,0.9,-23.3,278.6,-4.1,-11.8,56.4,39.3471,16.19394,337.0,299.3918152,3.3,3.0,330.4,11 / 20,4596,2017-05-30 21:28:02:748
0.553,0.327,9.8,1.771,0.627,9.63,-1.239,-0.395,-0.449,13.2,0.9,-23.3,278.6,-4.1,-11.8,56.4,39.3471,16.19394,337.0,299.3918152,3.3,3.0,330.4,11 / 21,4605,2017-05-30 21:28:02:757
0.553,0.327,9.8,1.689,0.613,9.643,-1.144,-0.3,0.163,13.3,1.3,-23.2,277.7,-3.7,-10.4,56.4,39.34708,16.19396,337.0,299.3918152,5.1,3.0,142.4,11 / 21,4615,2017-05-30 21:28:02:767
0.246,0.164,9.38,1.634,0.586,9.657,-1.348,-0.504,-0.191,13.3,1.6,-23.2,277.7,-3.7,-10.4,56.4,39.34708,16.19396,337.0,299.3918152,5.1,3.0,142.4,11 / 21,4625,2017-05-30 21:28:02:777
0.246,0.164,9.38,1.634,0.586,9.657,-1.348,-0.504,-0.191,13.3,1.6,-23.2,277.7,-3.7,-10.4,56.4,39.34708,16.19396,337.0,299.3918152,5.1,3.0,142.4,11 / 21,4637,2017-05-30 21:28:02:789
0.419,0.173,9.828,1.58,0.572,9.67,-1.335,-0.409,-0.286,13.0,1.6,-23.2,277.7,-3.7,-10.4,56.4,39.34708,16.19396,337.0,299.3918152,5.1,3.0,142.4,11 / 21,4646,2017-05-30 21:28:02:798
0.419,0.173,9.828,1.58,0.572,9.67,-1.335,-0.409,-0.286,13.0,1.6,-23.2,277.7,-3.7,-10.4,56.4,39.34708,16.19396,337.0,299.3918152,5.1,3.0,142.4,11 / 21,4656,2017-05-30 21:28:02:808
0.131,0.221,9.567,1.43,0.531,9.698,-1.022,-0.368,0.136,12.9,1.7,-23.2,280.9,-3.3,-9.3,56.4,39.34708,16.19396,337.0,299.3918152,5.1,3.0,142.4,11 / 21,4666,2017-05-30 21:28:02:818
0.332,0.279,9.978,1.28,0.49,9.711,-1.158,-0.272,-0.15,12.2,1.7,-23.4,280.9,-3.3,-9.3,56.4,39.34708,16.19396,337.0,299.3918152,5.1,3.0,142.4,11 / 21,4676,2017-05-30 21:28:02:828
0.332,0.279,9.978,1.28,0.49,9.711,-1.158,-0.272,-0.15,12.2,1.7,-23.4,280.9,-3.3,-9.3,56.4,39.34708,16.19396,337.0,299.3918152,5.1,3.0,142.4,11 / 21,4686,2017-05-30 21:28:02:838
0.265,0.116,9.324,1.212,0.463,9.725,-0.885,-0.191,0.259,12.2,1.7,-23.5,281.7,-2.9,-7.5,56.4,39.34708,16.19396,337.0,299.3918152,5.1,3.0,142.4,11 / 21,4695,2017-05-30 21:28:02:847
0.265,0.116,9.324,1.212,0.463,9.725,-0.885,-0.191,0.259,12.2,1.7,-23.5,281.7,-2.9,-7.5,56.4,39.34708,16.19396,337.0,299.3918152,5.1,3.0,142.4,11 / 21,4706,2017-05-30 21:28:02:858
0.38,0.25,10.006,1.062,0.422,9.752,-0.804,-0.313,-0.422,11.9,1.9,-23.5,281.7,-2.9,-7.5,56.4,39.34708,16.19396,337.0,299.3918152,5.1,3.0,142.4,11 / 21,4715,2017-05-30 21:28:02:867
0.17,0.068,9.464,0.913,0.395,9.766,-0.545,-0.15,0.245,12.2,1.7,-23.3,281.7,-2.9,-7.5,51.75,39.34708,16.19396,337.0,299.3918152,5.1,3.0,142.4,11 / 21,4726,2017-05-30 21:28:02:878
0.17,0.068,9.464,0.913,0.395,9.766,-0.545,-0.15,0.245,12.2,1.7,-23.3,281.7,-2.9,-7.5,51.75,39.34708,16.19396,337.0,299.3918152,5.1,3.0,142.4,11 / 21,4736,2017-05-30 21:28:02:888
0.17,0.068,9.464,0.913,0.395,9.766,-0.545,-0.15,0.245,12.2,1.7,-23.3,281.7,-2.9,-7.5,51.75,39.34708,16.19396,337.0,299.3918152,5.1,3.0,142.4,11 / 21,4747,2017-05-30 21:28:02:899
0.064,0.039,9.856,0.776,0.354,9.779,-0.613,-0.3,-0.313,11.9,1.7,-23.3,281.5,-2.3,-5.3,51.75,39.34708,16.19396,337.0,299.3918152,5.1,3.0,142.4,11 / 21,4756,2017-05-30 21:28:02:908
-0.108,0.049,9.482,0.667,0.313,9.779,-0.613,-0.286,0.082,11.7,1.4,-23.3,281.5,-2.3,-5.3,51.75,39.34708,16.19396,337.0,299.3918152,5.1,3.0,142.4,11 / 21,4766,2017-05-30 21:28:02:918
-0.108,0.049,9.482,0.667,0.313,9.779,-0.613,-0.286,0.082,11.7,1.4,-23.3,281.5,-2.3,-5.3,51.75,39.34708,16.19396,337.0,299.3918152,5.1,3.0,142.4,11 / 21,4776,2017-05-30 21:28:02:928
0.083,0.135,9.978,0.613,0.3,9.793,-0.79,-0.327,-0.558,11.6,1.1,-23.3,281.5,-2.3,-5.3,51.75,39.34708,16.19396,337.0,299.3918152,5.1,3.0,142.4,11 / 21,4786,2017-05-30 21:28:02:938
-0.166,-0.037,9.324,0.49,0.259,9.793,-0.409,-0.136,0.191,11.5,1.0,-23.8,277.2,-1.7,-3.6,51.75,39.34708,16.19396,337.0,299.3918152,5.1,3.0,142.4,11 / 21,4795,2017-05-30 21:28:02:947
-0.166,-0.037,9.324,0.49,0.259,9.793,-0.409,-0.136,0.191,11.5,1.0,-23.8,277.2,-1.7,-3.6,51.75,39.34708,16.19396,337.0,299.3918152,5.1,3.0,142.4,11 / 21,4805,2017-05-30 21:28:02:957
0.045,0.097,9.847,0.368,0.218,9.807,-0.531,-0.245,-0.477,11.3,0.8,-24.3,277.2,-1.7,-3.6,51.75,39.34708,16.19396,337.0,299.3918152,5.1,3.0,142.4,11 / 21,4815,2017-05-30 21:28:02:967
0.045,0.097,9.847,0.368,0.218,9.807,-0.531,-0.245,-0.477,11.3,0.8,-24.3,277.2,-1.7,-3.6,51.75,39.34708,16.19396,337.0,299.3918152,5.1,3.0,142.4,11 / 21,4825,2017-05-30 21:28:02:977
-0.032,-0.018,9.52,0.327,0.204,9.807,-0.286,-0.109,0.041,11.5,1.0,-24.7,277.2,-1.7,-3.6,51.75,39.34708,16.19396,337.0,299.3918152,5.1,3.0,142.4,11 / 21,4836,2017-05-30 21:28:02:988
0.055,0.049,9.95,0.259,0.177,9.807,-0.286,-0.191,-0.286,11.4,1.0,-24.8,277.3,-1.2,-1.9,51.75,39.34708,16.19396,337.0,299.3918152,5.1,3.0,142.4,11 / 21,4846,2017-05-30 21:28:02:998
0.055,0.049,9.95,0.259,0.177,9.807,-0.286,-0.191,-0.286,11.4,1.0,-24.8,277.3,-1.2,-1.9,51.75,39.34708,16.19396,337.0,299.3918152,5.1,3.0,142.4,11 / 21,4855,2017-05-30 21:28:03:007
-0.032,0.011,9.884,0.204,0.15,9.807,-0.15,-0.109,0.136,11.7,0.8,-25.3,277.3,-1.2,-1.9,51.75,39.34708,16.19396,337.0,299.3918152,5.1,3.0,142.4,11 / 21,4866,2017-05-30 21:28:03:018
-0.099,0.068,9.595,0.177,0.15,9.807,-0.204,-0.15,0.082,11.8,0.8,-25.0,277.3,-1.2,-1.9,51.75,39.34708,16.19396,337.0,299.3918152,5.1,3.0,142.4,11 / 21,4875,2017-05-30 21:28:03:027
-0.099,0.068,9.595,0.177,0.15,9.807,-0.204,-0.15,0.082,11.8,0.8,-25.0,277.3,-1.2,-1.9,51.75,39.34708,16.19396,337.0,299.3918152,5.1,3.0,142.4,11 / 21,4886,2017-05-30 21:28:03:038
-0.099,0.068,9.595,0.177,0.15,9.807,-0.204,-0.15,0.082,11.8,0.8,-25.0,277.3,-1.2,-1.9,51.75,39.34708,16.19396,337.0,299.3918152,5.1,3.0,142.4,11 / 21,4895,2017-05-30 21:28:03:047
-0.099,-0.066,9.567,0.136,0.123,9.807,-0.232,-0.068,-0.218,12.2,0.9,-24.8,276.3,-0.9,-1.0,51.75,39.34708,16.19396,337.0,299.3918152,5.1,3.0,142.4,11 / 21,4905,2017-05-30 21:28:03:057
-0.252,-0.009,9.342,0.095,0.095,9.807,-0.191,-0.15,-0.245,12.1,0.8,-24.9,276.3,-0.9,-1.0,51.75,39.34708,16.19396,337.0,299.3918152,5.1,3.0,142.4,11 / 21,4915,2017-05-30 21:28:03:067
-0.252,-0.009,9.342,0.095,0.095,9.807,-0.191,-0.15,-0.245,12.1,0.8,-24.9,276.3,-0.9,-1.0,51.75,39.34708,16.19396,337.0,299.3918152,5.1,3.0,142.4,11 / 21,4925,2017-05-30 21:28:03:077
-0.041,0.011,9.866,0.082,0.095,9.807,-0.327,-0.095,-0.463,12.3,0.4,-25.0,276.3,-0.9,-1.0,51.75,39.34708,16.19396,337.0,299.3918152,5.1,3.0,142.4,11 / 21,4935,2017-05-30 21:28:03:087
-0.099,-0.028,9.66,0.041,0.082,9.807,-0.082,-0.082,0.054,12.1,0.4,-25.0,271.1,-0.6,-0.5,51.75,39.34708,16.19396,337.0,299.3918152,5.1,3.0,142.4,11 / 21,4946,2017-05-30 21:28:03:098
-0.099,-0.028,9.66,0.041,0.082,9.807,-0.082,-0.082,0.054,12.1,0.4,-25.0,271.1,-0.6,-0.5,51.75,39.34708,16.19396,337.0,299.3918152,5.1,3.0,142.4,11 / 21,4956,2017-05-30 21:28:03:108
-0.147,0.039,9.912,0.014,0.068,9.807,-0.109,-0.095,-0.15,11.8,0.6,-25.4,271.1,-0.6,-0.5,51.75,39.34708,16.19396,337.0,299.3918152,5.1,3.0,142.4,11 / 21,4965,2017-05-30 21:28:03:117
-0.147,0.039,9.912,0.014,0.068,9.807,-0.109,-0.095,-0.15,11.8,0.6,-25.4,271.1,-0.6,-0.5,51.75,39.34708,16.19396,337.0,299.3918152,5.1,3.0,142.4,11 / 21,4975,2017-05-30 21:28:03:127
-0.089,-0.171,9.641,0.0,0.054,9.807,-0.136,-0.027,0.109,11.6,0.5,-25.6,271.1,-0.6,-0.5,51.75,39.34708,16.19396,337.0,299.3918152,5.1,3.0,142.4,11 / 21,4985,2017-05-30 21:28:03:137
0.122,0.049,9.716,-0.027,0.041,9.807,-0.054,-0.204,-0.163,11.9,0.5,-25.4,270.7,-0.3,0.0,51.75,39.34708,16.19396,337.0,299.3918152,5.1,3.0,142.4,11 / 21,4995,2017-05-30 21:28:03:147
0.122,0.049,9.716,-0.027,0.041,9.807,-0.054,-0.204,-0.163,11.9,0.5,-25.4,270.7,-0.3,0.0,51.75,39.34708,16.19396,337.0,299.3918152,5.1,3.0,142.4,11 / 21,5005,2017-05-30 21:28:03:157
-0.06,-0.104,9.576,-0.041,0.027,9.807,0.15,0.014,-0.095,12.0,1.3,-25.6,270.7,-0.3,0.0,51.75,39.34708,16.19396,337.0,299.3918152,5.1,3.0,142.4,11 / 21,5015,2017-05-30 21:28:03:167
-0.06,-0.104,9.576,-0.041,0.027,9.807,0.15,0.014,-0.095,12.0,1.3,-25.6,270.7,-0.3,0.0,51.75,39.34708,16.19396,337.0,299.3918152,5.1,3.0,142.4,11 / 21,5026,2017-05-30 21:28:03:178
0.083,0.078,9.651,-0.054,0.027,9.807,0.0,-0.123,-0.232,12.0,1.4,-25.7,270.7,-0.3,0.0,51.75,39.34708,16.19396,337.0,299.3918152,5.1,3.0,142.4,11 / 21,5035,2017-05-30 21:28:03:187
0.16,-0.009,9.576,-0.054,0.027,9.807,0.136,0.041,-0.15,11.8,1.4,-25.6,275.2,-0.2,0.3,53.93,39.34708,16.19396,337.0,299.3918152,5.1,3.0,142.4,11 / 21,5045,2017-05-30 21:28:03:197
0.16,-0.009,9.576,-0.054,0.027,9.807,0.136,0.041,-0.15,11.8,1.4,-25.6,275.2,-0.2,0.3,53.93,39.34708,16.19396,337.0,299.3918152,5.1,3.0,142.4,11 / 21,5056,2017-05-30 21:28:03:208
0.074,0.106,9.604,-0.054,0.027,9.807,0.204,-0.027,-0.232,11.7,1.4,-25.4,275.2,-0.2,0.3,53.93,39.34708,16.19396,337.0,299.3918152,5.1,3.0,142.4,11 / 21,5066,2017-05-30 21:28:03:218
0.074,0.106,9.604,-0.054,0.027,9.807,0.204,-0.027,-0.232,11.7,1.4,-25.4,275.2,-0.2,0.3,53.93,39.34708,16.19396,337.0,299.3918152,5.1,3.0,142.4,11 / 21,5076,2017-05-30 21:28:03:228
0.198,0.116,9.426,-0.054,0.027,9.807,0.272,0.095,-0.082,11.7,1.4,-25.6,275.2,-0.2,0.3,53.93,39.34708,16.19396,337.0,299.3918152,5.1,3.0,142.4,11 / 21,5086,2017-05-30 21:28:03:238
0.246,0.164,9.623,-0.054,0.027,9.807,0.245,0.082,-0.381,11.3,0.9,-25.6,275.2,-0.2,0.3,53.93,39.34708,16.19396,337.0,299.3918152,5.1,3.0,142.4,11 / 21,5095,2017-05-30 21:28:03:247
0.246,0.164,9.623,-0.054,0.027,9.807,0.245,0.082,-0.381,11.3,0.9,-25.6,275.2,-0.2,0.3,53.93,39.34708,16.19396,337.0,299.3918152,5.1,3.0,142.4,11 / 21,5106,2017-05-30 21:28:03:258
0.208,0.049,9.398,-0.054,0.027,9.807,0.3,0.136,-0.191,11.3,1.1,-25.5,275.2,-0.2,0.3,53.93,39.34708,16.19396,337.0,299.3918152,5.1,3.0,142.4,11 / 21,5116,2017-05-30 21:28:03:268
0.208,0.049,9.398,-0.054,0.027,9.807,0.3,0.136,-0.191,11.3,1.1,-25.5,275.2,-0.2,0.3,53.93,39.34708,16.19396,337.0,299.3918152,5.1,3.0,142.4,11 / 21,5126,2017-05-30 21:28:03:278
0.457,0.269,9.725,-0.041,0.027,9.807,0.245,0.014,-0.409,11.3,1.0,-25.3,275.6,-0.2,0.3,53.93,39.34708,16.19396,337.0,299.3918152,5.1,3.0,142.4,11 / 21,5138,2017-05-30 21:28:03:290
0.514,0.25,9.548,0.0,0.027,9.807,0.449,0.232,-0.082,11.1,1.3,-25.4,275.6,-0.2,0.3,53.93,39.34708,16.19396,337.0,299.3918152,5.1,3.0,142.4,11 / 21,5149,2017-05-30 21:28:03:301
0.514,0.25,9.548,0.0,0.027,9.807,0.449,0.232,-0.082,11.1,1.3,-25.4,275.6,-0.2,0.3,53.93,39.34708,16.19396,337.0,299.3918152,5.1,3.0,142.4,11 / 21,5156,2017-05-30 21:28:03:308
0.514,0.25,9.548,0.014,0.027,9.807,0.49,0.218,-0.259,11.0,1.2,-25.4,275.6,-0.2,0.3,53.93,39.34708,16.19396,337.0,299.3918152,5.1,3.0,142.4,11 / 21,5165,2017-05-30 21:28:03:317
0.514,0.25,9.548,0.014,0.027,9.807,0.49,0.218,-0.259,11.0,1.2,-25.4,275.6,-0.2,0.3,53.93,39.34708,16.19396,337.0,299.3918152,5.1,3.0,142.4,11 / 21,5175,2017-05-30 21:28:03:327
0.514,0.25,9.548,0.014,0.027,9.807,0.49,0.218,-0.259,11.0,1.2,-25.4,275.6,-0.2,0.3,53.93,39.34708,16.19396,337.0,299.3918152,5.1,3.0,142.4,11 / 21,5185,2017-05-30 21:28:03:337
0.514,0.25,9.548,0.014,0.027,9.807,0.49,0.218,-0.259,11.0,1.2,-25.4,275.6,-0.2,0.3,53.93,39.34708,16.19396,337.0,299.3918152,5.1,3.0,142.4,11 / 21,5195,2017-05-30 21:28:03:347
0.514,0.25,9.548,0.014,0.027,9.807,0.49,0.218,-0.259,11.0,1.2,-25.4,275.6,-0.2,0.3,53.93,39.34708,16.19396,337.0,299.3918152,5.1,3.0,142.4,11 / 21,5206,2017-05-30 21:28:03:358
0.514,0.25,9.548,0.014,0.027,9.807,0.49,0.218,-0.259,11.0,1.2,-25.4,275.6,-0.2,0.3,53.93,39.34708,16.19396,337.0,299.3918152,5.1,3.0,142.4,11 / 21,5230,2017-05-30 21:28:03:382
0.514,0.25,9.548,0.014,0.027,9.807,0.49,0.218,-0.259,11.0,1.2,-25.4,275.6,-0.2,0.3,53.93,39.34708,16.19396,337.0,299.3918152,5.1,3.0,142.4,11 / 21,5231,2017-05-30 21:28:03:383
0.514,0.25,9.548,0.014,0.027,9.807,0.49,0.218,-0.259,11.0,1.2,-25.4,275.6,-0.2,0.3,53.93,39.34708,16.19396,337.0,299.3918152,5.1,3.0,142.4,11 / 21,5236,2017-05-30 21:28:03:388
0.514,0.25,9.548,0.014,0.027,9.807,0.49,0.218,-0.259,11.0,1.2,-25.4,275.6,-0.2,0.3,53.93,39.34708,16.19396,337.0,299.3918152,5.1,3.0,142.4,11 / 21,5245,2017-05-30 21:28:03:397
0.514,0.25,9.548,0.014,0.027,9.807,0.49,0.218,-0.259,11.0,1.2,-25.4,275.6,-0.2,0.3,53.93,39.34708,16.19396,337.0,299.3918152,5.1,3.0,142.4,11 / 21,5256,2017-05-30 21:28:03:408
0.514,0.25,9.548,0.014,0.027,9.807,0.49,0.218,-0.259,11.0,1.2,-25.4,275.6,-0.2,0.3,53.93,39.34708,16.19396,337.0,299.3918152,5.1,3.0,142.4,11 / 21,5266,2017-05-30 21:28:03:418
0.457,0.269,9.697,0.041,0.041,9.807,0.3,0.245,-0.177,11.2,1.6,-25.4,280.6,-0.2,-0.1,53.93,39.34708,16.19396,337.0,299.3918152,5.1,3.0,142.4,11 / 21,5275,2017-05-30 21:28:03:427
0.227,0.078,9.576,0.313,0.177,9.807,-0.3,0.0,-0.109,11.9,1.4,-25.1,280.6,-0.2,-0.1,53.93,39.34708,16.19396,337.0,299.3918152,5.1,3.0,142.4,11 / 21,5285,2017-05-30 21:28:03:437
0.227,0.078,9.576,0.313,0.177,9.807,-0.3,0.0,-0.109,11.9,1.4,-25.1,280.6,-0.2,-0.1,53.93,39.34708,16.19396,337.0,299.3918152,5.1,3.0,142.4,11 / 21,5295,2017-05-30 21:28:03:447
1.051,0.528,9.557,0.341,0.191,9.807,-0.123,-0.123,-0.232,12.2,1.7,-24.8,280.6,-0.2,-0.1,53.93,39.34708,16.19396,337.0,299.3918152,5.1,3.0,142.4,11 / 21,5306,2017-05-30 21:28:03:458
1.051,0.528,9.557,0.341,0.191,9.807,-0.123,-0.123,-0.232,12.2,1.7,-24.8,280.6,-0.2,-0.1,53.93,39.34708,16.19396,337.0,299.3918152,5.1,3.0,142.4,11 / 21,5316,2017-05-30 21:28:03:468
1.051,0.528,9.557,0.341,0.191,9.807,-0.123,-0.123,-0.232,12.2,1.7,-24.8,280.6,-0.2,-0.1,53.93,39.34708,16.19396,337.0,299.3918152,5.1,3.0,142.4,11 / 21,5326,2017-05-30 21:28:03:478
0.993,0.509,9.903,0.368,0.204,9.807,0.681,0.313,-0.245,11.9,1.7,-25.0,280.9,-1.1,-2.0,53.93,39.34708,16.19396,337.0,299.3918152,5.1,3.0,142.4,11 / 21,5335,2017-05-30 21:28:03:487
0.658,0.135,9.352,0.368,0.204,9.807,0.681,0.313,-0.245,11.9,1.7,-25.0,280.9,-1.1,-2.0,53.93,39.34708,16.19396,337.0,299.3918152,5.1,3.0,142.4,11 / 21,5346,2017-05-30 21:28:03:498
0.658,0.135,9.352,0.463,0.232,9.793,0.518,0.068,0.3,12.6,2.8,-24.7,280.9,-1.1,-2.0,53.93,39.34708,16.19396,337.0,299.3918152,5.1,3.0,142.4,11 / 21,5356,2017-05-30 21:28:03:508
0.658,0.135,9.352,0.463,0.232,9.793,0.518,0.068,0.3,12.6,2.8,-24.7,280.9,-1.1,-2.0,53.93,39.34708,16.19396,337.0,299.3918152,5.1,3.0,142.4,11 / 21,5366,2017-05-30 21:28:03:518
0.562,0.269,9.735,0.504,0.245,9.793,0.15,-0.123,-0.436,12.5,2.8,-24.8,285.2,-1.4,-2.7,53.93,39.34708,16.19396,337.0,299.3918152,5.1,3.0,142.4,11 / 21,5376,2017-05-30 21:28:03:528
0.562,0.269,9.735,0.504,0.245,9.793,0.15,-0.123,-0.436,12.5,2.8,-24.8,285.2,-1.4,-2.7,58.71,39.34708,16.19396,337.0,299.3918152,5.1,3.0,142.4,11 / 21,5386,2017-05-30 21:28:03:538
1.271,0.844,9.847,0.545,0.245,9.793,0.79,0.286,0.054,12.4,2.8,-25.0,285.2,-1.4,-2.7,58.71,39.34708,16.19396,337.0,299.3918152,5.1,3.0,142.4,11 / 21,5396,2017-05-30 21:28:03:548
1.271,0.844,9.847,0.586,0.272,9.793,0.681,0.558,0.054,12.5,2.8,-25.1,285.2,-1.4,-2.7,58.71,39.34708,16.19396,337.0,299.3918152,5.1,3.0,142.4,11 / 21,5406,2017-05-30 21:28:03:558
0.811,0.528,9.632,0.599,0.272,9.793,0.123,-0.15,0.123,12.3,2.8,-25.1,285.2,-1.6,-3.4,58.71,39.34708,16.19396,337.0,299.3918152,5.1,3.0,142.4,11 / 21,5416,2017-05-30 21:28:03:568
0.811,0.528,9.632,0.599,0.272,9.793,0.123,-0.15,0.123,12.3,2.8,-25.1,285.2,-1.6,-3.4,58.71,39.34708,16.19396,337.0,299.3918152,5.1,3.0,142.4,11 / 21,5426,2017-05-30 21:28:03:578
0.821,0.403,10.146,0.654,0.3,9.793,0.681,0.272,-0.218,11.9,2.6,-25.3,285.2,-1.6,-3.4,58.71,39.34708,16.19396,337.0,299.3918152,5.1,3.0,142.4,11 / 21,5436,2017-05-30 21:28:03:588
0.821,0.403,10.146,0.654,0.3,9.793,0.681,0.272,-0.218,11.9,2.6,-25.3,285.2,-1.6,-3.4,58.71,39.34708,16.19396,337.0,299.3918152,5.1,3.0,142.4,11 / 21,5445,2017-05-30 21:28:03:597
1.012,0.365,9.277,0.681,0.313,9.779,0.136,0.082,0.368,12.1,2.6,-25.2,285.2,-1.6,-3.4,58.71,39.34708,16.19396,337.0,299.3918152,5.1,3.0,142.4,11 / 21,5455,2017-05-30 21:28:03:607
1.051,0.307,9.912,0.708,0.327,9.779,0.3,0.027,-0.504,11.8,2.6,-24.7,285.4,-1.8,-4.0,58.71,39.34708,16.19396,337.0,299.3918152,5.1,3.0,142.4,11 / 21,5465,2017-05-30 21:28:03:617
1.051,0.307,9.912,0.708,0.327,9.779,0.3,0.027,-0.504,11.8,2.6,-24.7,285.4,-1.8,-4.0,58.71,39.34708,16.19396,337.0,299.3918152,5.1,3.0,142.4,11 / 21,5475,2017-05-30 21:28:03:627
1.051,0.307,9.912,0.708,0.327,9.779,0.3,0.027,-0.504,11.8,2.6,-24.7,285.4,-1.8,-4.0,58.71,39.34708,16.19396,337.0,299.3918152,5.1,3.0,142.4,11 / 21,5485,2017-05-30 21:28:03:637
1.213,0.317,9.053,0.749,0.341,9.779,0.3,-0.041,0.136,11.8,2.5,-24.8,285.4,-1.8,-4.0,58.71,39.34708,16.19396,337.0,299.3918152,5.1,3.0,142.4,11 / 21,5496,2017-05-30 21:28:03:648
1.233,0.317,9.669,0.817,0.354,9.779,0.368,0.15,-0.259,12.2,2.4,-24.8,281.5,-2.0,-4.4,58.71,39.34708,16.19396,337.0,299.3918152,5.1,3.0,142.4,11 / 21,5505,2017-05-30 21:28:03:657
1.233,0.317,9.669,0.817,0.354,9.779,0.449,0.163,0.327,12.1,2.5,-24.4,281.5,-2.0,-4.4,58.71,39.34708,16.19396,337.0,299.3918152,5.1,3.0,142.4,11 / 21,5515,2017-05-30 21:28:03:667
1.28,0.47,9.249,0.831,0.368,9.766,0.449,0.163,0.327,12.1,2.5,-24.4,281.5,-2.0,-4.4,58.71,39.34708,16.19396,337.0,299.3918152,5.1,3.0,142.4,11 / 21,5525,2017-05-30 21:28:03:677
1.28,0.47,9.249,0.831,0.368,9.766,0.449,0.163,0.327,12.1,2.5,-24.4,281.5,-2.0,-4.4,58.71,39.34708,16.19396,337.0,299.3918152,5.1,3.0,142.4,11 / 21,5537,2017-05-30 21:28:03:689
1.367,0.441,10.146,0.858,0.368,9.766,0.422,0.095,-0.518,12.0,2.5,-24.5,281.6,-2.1,-4.9,58.71,39.34708,16.19396,337.0,299.3918152,5.1,3.0,142.4,11 / 21,5546,2017-05-30 21:28:03:698
1.376,0.547,9.426,0.926,0.381,9.766,0.436,0.054,0.381,12.2,2.4,-24.5,281.6,-2.1,-4.9,58.71,39.34708,16.19396,337.0,299.3918152,5.1,3.0,142.4,11 / 21,5556,2017-05-30 21:28:03:708
1.376,0.547,9.426,0.926,0.381,9.766,0.436,0.054,0.381,12.2,2.4,-24.5,281.6,-2.1,-4.9,58.71,39.34708,16.19396,337.0,299.3918152,5.1,3.0,142.4,11 / 21,5567,2017-05-30 21:28:03:719
1.443,0.518,9.968,0.926,0.381,9.766,0.327,-0.123,-0.286,12.2,2.5,-24.6,281.6,-2.1,-4.9,58.71,39.34708,16.19396,337.0,299.3918152,5.1,3.0,142.4,11 / 21,5575,2017-05-30 21:28:03:727
1.443,0.518,9.968,0.926,0.381,9.766,0.327,-0.123,-0.286,12.2,2.5,-24.6,281.6,-2.1,-4.9,58.71,39.34708,16.19396,337.0,299.3918152,5.1,3.0,142.4,11 / 21,5585,2017-05-30 21:28:03:737
1.443,0.518,9.968,0.926,0.381,9.766,0.327,-0.123,-0.286,12.2,2.5,-24.6,281.6,-2.1,-4.9,58.71,39.34708,16.19396,337.0,299.3918152,5.1,3.0,142.4,11 / 21,5598,2017-05-30 21:28:03:750
1.347,0.365,9.296,0.953,0.395,9.752,0.49,0.123,0.218,11.8,2.6,-25.1,285.3,-2.2,-5.4,58.71,39.34708,16.19396,337.0,299.3918152,5.1,3.0,142.4,11 / 21,5606,2017-05-30 21:28:03:758
1.347,0.365,9.296,0.953,0.395,9.752,0.49,0.123,0.218,11.8,2.6,-25.1,285.3,-2.2,-5.4,58.71,39.34708,16.19396,337.0,299.3918152,5.1,3.0,142.4,12 / 21,5616,2017-05-30 21:28:03:768
1.175,0.26,9.539,1.035,0.422,9.752,0.354,0.082,-0.368,12.5,2.8,-25.3,285.3,-2.2,-5.4,58.71,39.34707,16.19397,337.0,299.3918152,5.6,3.0,160.3,12 / 21,5626,2017-05-30 21:28:03:778
1.175,0.26,9.539,1.076,0.422,9.739,0.095,-0.163,-0.204,12.3,3.1,-25.6,285.3,-2.2,-5.4,58.71,39.34707,16.19397,337.0,299.3918152,5.6,3.0,160.3,12 / 21,5636,2017-05-30 21:28:03:788
1.175,0.298,9.837,1.076,0.422,9.739,0.095,-0.163,-0.204,12.2,3.2,-25.6,285.3,-2.5,-6.3,58.71,39.34707,16.19397,337.0,299.3918152,5.6,3.0,160.3,12 / 21,5645,2017-05-30 21:28:03:797
1.175,0.298,9.837,1.076,0.422,9.739,0.095,-0.163,-0.204,12.2,3.2,-25.6,285.3,-2.5,-6.3,58.71,39.34707,16.19397,337.0,299.3918152,5.6,3.0,160.3,12 / 21,5655,2017-05-30 21:28:03:807
1.501,0.528,9.464,1.09,0.436,9.739,0.082,-0.15,0.095,12.5,3.1,-25.4,285.3,-2.5,-6.3,58.71,39.34707,16.19397,337.0,299.3918152,5.6,3.0,160.3,12 / 21,5666,2017-05-30 21:28:03:818
1.501,0.528,9.464,1.09,0.436,9.739,0.082,-0.15,0.095,12.5,3.1,-25.4,285.3,-2.5,-6.3,58.71,39.34707,16.19397,337.0,299.3918152,5.6,3.0,160.3,12 / 21,5676,2017-05-30 21:28:03:828
1.213,0.384,9.613,1.117,0.436,9.739,0.381,0.082,-0.272,12.7,3.1,-25.7,285.3,-2.5,-6.3,58.71,39.34707,16.19397,337.0,299.3918152,5.6,3.0,160.3,12 / 21,5686,2017-05-30 21:28:03:838
1.482,0.614,9.557,1.117,0.436,9.739,0.15,-0.123,-0.027,12.3,3.2,-25.7,285.3,-2.5,-6.5,58.71,39.34707,16.19397,337.0,299.3918152,5.6,3.0,160.3,12 / 21,5696,2017-05-30 21:28:03:848
1.137,0.336,9.604,1.13,0.436,9.739,0.341,0.177,-0.177,12.2,3.2,-25.6,285.3,-2.5,-6.5,58.71,39.34707,16.19397,337.0,299.3918152,5.6,3.0,160.3,12 / 21,5706,2017-05-30 21:28:03:858
1.137,0.336,9.604,1.13,0.436,9.739,0.341,0.177,-0.177,12.2,3.2,-25.6,285.3,-2.5,-6.5,70.12,39.34707,16.19397,337.0,299.3918152,5.6,3.0,160.3,12 / 21,5716,2017-05-30 21:28:03:868
1.539,0.662,9.613,1.158,0.436,9.739,-0.027,-0.109,-0.136,12.4,3.4,-25.6,285.3,-2.5,-6.5,70.12,39.34707,16.19397,337.0,299.3918152,5.6,3.0,160.3,12 / 21,5726,2017-05-30 21:28:03:878
1.539,0.662,9.613,1.158,0.436,9.739,-0.027,-0.109,-0.136,12.4,3.4,-25.6,285.3,-2.5,-6.5,70.12,39.34707,16.19397,337.0,299.3918152,5.6,3.0,160.3,12 / 21,5736,2017-05-30 21:28:03:888
1.194,0.556,9.585,1.171,0.436,9.739,0.368,0.218,-0.123,12.2,3.4,-25.5,285.2,-2.5,-6.8,70.12,39.34707,16.19397,337.0,299.3918152,5.6,3.0,160.3,12 / 21,5745,2017-05-30 21:28:03:897
0.811,0.317,9.781,1.212,0.436,9.725,-0.027,0.109,-0.136,12.2,3.6,-25.5,285.2,-2.5,-6.8,70.12,39.34707,16.19397,337.0,299.3918152,5.6,3.0,160.3,12 / 21,5755,2017-05-30 21:28:03:907
0.811,0.317,9.781,1.212,0.436,9.725,-0.027,0.109,-0.136,12.2,3.6,-25.5,285.2,-2.5,-6.8,70.12,39.34707,16.19397,337.0,299.3918152,5.6,3.0,160.3,12 / 21,5767,2017-05-30 21:28:03:919
1.51,0.758,9.473,1.226,0.436,9.725,0.409,0.177,-0.136,12.3,3.4,-25.7,285.2,-2.5,-6.8,70.12,39.34707,16.19397,337.0,299.3918152,5.6,3.0,160.3,12 / 21,5778,2017-05-30 21:28:03:930
1.51,0.758,9.473,1.226,0.436,9.725,0.409,0.177,-0.136,12.3,3.4,-25.7,285.2,-2.5,-6.8,70.12,39.34707,16.19397,337.0,299.3918152,5.6,3.0,160.3,12 / 21,5787,2017-05-30 21:28:03:939
0.993,0.432,9.922,1.239,0.436,9.725,0.259,0.313,-0.259,12.4,3.3,-25.4,285.0,-2.5,-7.2,70.12,39.34707,16.19397,337.0,299.3918152,5.6,3.0,160.3,12 / 21,5796,2017-05-30 21:28:03:948
1.271,0.441,9.791,1.253,0.436,9.725,-0.272,-0.014,0.191,12.7,3.1,-24.7,285.0,-2.5,-7.2,70.12,39.34707,16.19397,337.0,299.3918152,5.6,3.0,160.3,12 / 21,5805,2017-05-30 21:28:03:957
1.271,0.441,9.791,1.253,0.436,9.725,-0.272,-0.014,0.191,12.7,3.1,-24.7,285.0,-2.5,-7.2,70.12,39.34707,16.19397,337.0,299.3918152,5.6,3.0,160.3,12 / 21,5815,2017-05-30 21:28:03:967
1.271,0.441,9.791,1.253,0.436,9.725,-0.272,-0.014,0.191,12.7,3.1,-24.7,285.0,-2.5,-7.2,70.12,39.34707,16.19397,337.0,299.3918152,5.6,3.0,160.3,12 / 21,5826,2017-05-30 21:28:03:978
1.271,0.441,9.791,1.253,0.436,9.725,-0.272,-0.014,0.191,12.7,3.1,-24.7,285.0,-2.5,-7.2,70.12,39.34707,16.19397,337.0,299.3918152,5.6,3.0,160.3,12 / 21,5836,2017-05-30 21:28:03:988
1.079,0.518,9.781,1.239,0.436,9.725,0.136,0.245,-0.163,12.4,3.2,-24.6,284.9,-2.5,-7.3,70.12,39.34707,16.19397,337.0,299.3918152,5.6,3.0,160.3,12 / 21,5846,2017-05-30 21:28:03:998
1.079,0.518,9.781,1.239,0.436,9.725,0.136,0.245,-0.163,12.4,3.2,-24.6,284.9,-2.5,-7.3,70.12,39.34707,16.19397,337.0,299.3918152,5.6,3.0,160.3,12 / 21,5856,2017-05-30 21:28:04:008
1.491,0.47,9.772,1.267,0.449,9.725,-0.163,-0.191,-0.014,12.2,2.8,-24.5,284.9,-2.5,-7.3,70.12,39.34707,16.19397,337.0,299.3918152,5.6,3.0,160.3,12 / 21,5866,2017-05-30 21:28:04:018
1.491,0.47,9.772,1.267,0.449,9.725,-0.163,-0.191,-0.014,12.2,2.8,-24.5,284.9,-2.5,-7.3,70.12,39.34707,16.19397,337.0,299.3918152,5.6,3.0,160.3,12 / 21,5875,2017-05-30 21:28:04:027
1.654,0.748,9.595,1.28,0.463,9.725,0.204,0.0,0.041,12.1,2.4,-24.4,281.4,-2.6,-7.4,70.12,39.34707,16.19397,337.0,299.3918152,5.6,3.0,160.3,12 / 21,5885,2017-05-30 21:28:04:037
1.654,0.748,9.595,1.28,0.463,9.725,0.204,0.0,0.041,12.1,2.4,-24.4,281.4,-2.6,-7.4,70.12,39.34707,16.19397,337.0,299.3918152,5.6,3.0,160.3,12 / 21,5896,2017-05-30 21:28:04:048
1.462,0.413,9.669,1.28,0.463,9.725,0.368,0.272,-0.136,12.2,2.3,-24.5,281.4,-2.6,-7.4,70.12,39.34707,16.19397,337.0,299.3918152,5.6,3.0,160.3,12 / 21,5906,2017-05-30 21:28:04:058
1.462,0.413,9.669,1.28,0.463,9.725,0.368,0.272,-0.136,12.2,2.3,-24.5,281.4,-2.6,-7.4,70.12,39.34707,16.19397,337.0,299.3918152,5.6,3.0,160.3,12 / 21,5916,2017-05-30 21:28:04:068
1.462,0.413,9.669,1.28,0.463,9.725,0.368,0.272,-0.136,12.2,2.3,-24.5,281.4,-2.6,-7.4,70.12,39.34707,16.19397,337.0,299.3918152,5.6,3.0,160.3,12 / 21,5925,2017-05-30 21:28:04:077
1.434,0.279,9.959,1.28,0.463,9.725,0.313,0.014,-0.191,12.1,2.5,-24.3,281.5,-2.7,-7.5,70.12,39.34707,16.19397,337.0,299.3918152,5.6,3.0,160.3,12 / 21,5936,2017-05-30 21:28:04:088
1.434,0.279,9.959,1.28,0.463,9.725,0.313,0.014,-0.191,12.1,2.5,-24.3,281.5,-2.7,-7.5,70.12,39.34707,16.19397,337.0,299.3918152,5.6,3.0,160.3,12 / 21,5960,2017-05-30 21:28:04:112
1.434,0.279,9.959,1.28,0.463,9.725,0.313,0.014,-0.191,12.1,2.5,-24.3,281.5,-2.7,-7.5,70.12,39.34707,16.19397,337.0,299.3918152,5.6,3.0,160.3,12 / 21,5960,2017-05-30 21:28:04:112
1.769,0.509,9.585,1.28,0.463,9.725,0.15,-0.191,0.232,12.5,2.8,-24.1,281.5,-2.7,-7.5,70.12,39.34707,16.19397,337.0,299.3918152,5.6,3.0,160.3,12 / 21,5965,2017-05-30 21:28:04:117
1.769,0.509,9.585,1.28,0.463,9.725,0.15,-0.191,0.232,12.5,2.8,-24.1,281.5,-2.7,-7.5,70.12,39.34707,16.19397,337.0,299.3918152,5.6,3.0,160.3,12 / 21,5975,2017-05-30 21:28:04:127
1.759,0.164,9.959,1.294,0.463,9.711,0.095,-0.177,-0.15,12.3,2.9,-24.8,285.1,-2.7,-7.5,70.12,39.34707,16.19397,337.0,299.3918152,5.6,3.0,160.3,12 / 21,5986,2017-05-30 21:28:04:138
1.759,0.164,9.959,1.294,0.463,9.711,0.095,-0.177,-0.15,12.3,2.9,-24.8,285.1,-2.7,-7.5,70.12,39.34707,16.19397,337.0,299.3918152,5.6,3.0,160.3,12 / 21,5996,2017-05-30 21:28:04:148
1.759,0.164,9.959,1.294,0.463,9.711,0.095,-0.177,-0.15,12.3,2.9,-24.8,285.1,-2.7,-7.5,70.12,39.34707,16.19397,337.0,299.3918152,5.6,3.0,160.3,12 / 21,6029,2017-05-30 21:28:04:181
1.759,0.164,9.959,1.294,0.463,9.711,0.095,-0.177,-0.15,12.3,2.9,-24.8,285.1,-2.7,-7.5,70.12,39.34707,16.19397,337.0,299.3918152,5.6,3.0,160.3,12 / 21,6030,2017-05-30 21:28:04:182
1.759,0.164,9.959,1.294,0.463,9.711,0.095,-0.177,-0.15,12.3,2.9,-24.8,285.1,-2.7,-7.5,70.12,39.34707,16.19397,337.0,299.3918152,5.6,3.0,160.3,12 / 21,6035,2017-05-30 21:28:04:187
1.759,0.164,9.959,1.294,0.463,9.711,0.095,-0.177,-0.15,12.3,2.9,-24.8,285.1,-2.7,-7.5,70.12,39.34707,16.19397,337.0,299.3918152,5.6,3.0,160.3,12 / 21,6037,2017-05-30 21:28:04:189
1.759,0.164,9.959,1.294,0.463,9.711,0.095,-0.177,-0.15,12.3,2.9,-24.8,285.1,-2.7,-7.5,70.12,39.34707,16.19397,337.0,299.3918152,5.6,3.0,160.3,12 / 21,6046,2017-05-30 21:28:04:198
1.759,0.355,9.753,1.335,0.463,9.711,0.109,-0.327,-0.3,12.2,2.7,-25.0,285.1,-2.7,-7.6,70.12,39.34707,16.19397,337.0,299.3918152,5.6,3.0,160.3,12 / 21,6058,2017-05-30 21:28:04:210
1.759,0.355,9.753,1.335,0.463,9.711,0.109,-0.327,-0.3,12.2,2.7,-25.0,285.1,-2.7,-7.6,70.12,39.34707,16.19397,337.0,299.3918152,5.6,3.0,160.3,12 / 21,6083,2017-05-30 21:28:04:235
1.759,0.355,9.753,1.335,0.463,9.711,0.109,-0.327,-0.3,12.2,2.7,-25.0,285.1,-2.7,-7.6,70.12,39.34707,16.19397,337.0,299.3918152,5.6,3.0,160.3,12 / 21,6084,2017-05-30 21:28:04:236
1.759,0.355,9.753,1.335,0.463,9.711,0.109,-0.327,-0.3,12.2,2.7,-25.0,285.1,-2.7,-7.6,70.12,39.34707,16.19397,337.0,299.3918152,5.6,3.0,160.3,12 / 21,6085,2017-05-30 21:28:04:237
1.759,0.355,9.753,1.335,0.463,9.711,0.109,-0.327,-0.3,12.2,2.7,-25.0,285.1,-2.7,-7.6,70.12,39.34707,16.19397,337.0,299.3918152,5.6,3.0,160.3,12 / 21,6095,2017-05-30 21:28:04:247
1.367,0.097,9.931,1.389,0.422,9.711,0.177,-0.163,-0.272,11.9,1.9,-24.8,281.4,-2.7,-7.8,70.12,39.34707,16.19397,337.0,299.3918152,5.6,3.0,160.3,12 / 21,6105,2017-05-30 21:28:04:257
1.367,0.097,9.931,1.389,0.422,9.711,0.177,-0.163,-0.272,11.9,1.9,-24.8,281.4,-2.7,-7.8,70.12,39.34707,16.19397,337.0,299.3918152,5.6,3.0,160.3,12 / 21,6115,2017-05-30 21:28:04:267
1.367,0.097,9.931,1.389,0.422,9.711,0.177,-0.163,-0.272,11.9,1.9,-24.8,281.4,-2.7,-7.8,70.12,39.34707,16.19397,337.0,299.3918152,5.6,3.0,160.3,12 / 21,6126,2017-05-30 21:28:04:278
1.663,0.298,9.791,1.457,0.341,9.698,-0.054,-0.218,0.123,11.8,1.7,-24.7,281.4,-2.7,-7.8,70.12,39.34707,16.19397,337.0,299.3918152,5.6,3.0,160.3,12 / 21,6136,2017-05-30 21:28:04:288
1.663,0.298,9.791,1.457,0.341,9.698,-0.054,-0.218,0.123,11.8,2.0,-24.3,281.4,-2.7,-7.8,70.12,39.34707,16.19397,337.0,299.3918152,5.6,3.0,160.3,12 / 21,6146,2017-05-30 21:28:04:298
1.539,0.135,9.791,1.457,0.327,9.698,0.204,-0.041,0.095,11.8,2.0,-24.3,280.1,-2.0,-8.5,67.47,39.34707,16.19397,337.0,299.3918152,5.6,3.0,160.3,12 / 21,6156,2017-05-30 21:28:04:308
1.539,0.135,9.791,1.457,0.327,9.698,0.204,-0.041,0.095,11.8,2.0,-24.3,280.1,-2.0,-8.5,67.47,39.34707,16.19397,337.0,299.3918152,5.6,3.0,160.3,12 / 21,6166,2017-05-30 21:28:04:318
1.596,0.317,9.912,1.457,0.313,9.698,-0.177,-0.191,0.545,12.1,2.2,-24.1,280.1,-2.0,-8.5,67.47,39.34707,16.19397,337.0,299.3918152,5.6,3.0,160.3,12 / 21,6175,2017-05-30 21:28:04:327
1.596,0.317,9.912,1.457,0.313,9.698,-0.177,-0.191,0.545,12.1,2.2,-24.1,280.1,-2.0,-8.5,67.47,39.34707,16.19397,337.0,299.3918152,5.6,3.0,160.3,12 / 21,6185,2017-05-30 21:28:04:337
1.596,0.317,9.912,1.457,0.313,9.698,-0.177,-0.191,0.545,12.1,2.2,-24.1,280.1,-2.0,-8.5,67.47,39.34707,16.19397,337.0,299.3918152,5.6,3.0,160.3,12 / 21,6195,2017-05-30 21:28:04:347
1.472,0.068,10.221,1.471,0.245,9.698,-0.041,-0.177,-0.232,11.8,2.0,-24.3,279.9,-1.8,-8.5,67.47,39.34707,16.19397,337.0,299.3918152,5.6,3.0,160.3,12 / 21,6205,2017-05-30 21:28:04:357
1.721,0.298,9.651,1.485,0.232,9.698,-0.014,-0.177,0.518,11.9,2.2,-24.5,279.9,-1.8,-8.5,67.47,39.34707,16.19397,337.0,299.3918152,5.6,3.0,160.3,12 / 21,6215,2017-05-30 21:28:04:367
1.721,0.298,9.651,1.485,0.232,9.698,-0.014,-0.177,0.518,11.9,2.2,-24.5,279.9,-1.8,-8.5,67.47,39.34707,16.19397,337.0,299.3918152,5.6,3.0,160.3,12 / 21,6225,2017-05-30 21:28:04:377
1.558,0.02,9.585,1.485,0.232,9.698,0.232,0.054,-0.041,11.7,2.3,-24.8,279.2,-1.4,-8.7,67.47,39.34707,16.19397,337.0,299.3918152,5.6,3.0,160.3,12 / 21,6241,2017-05-30 21:28:04:393
1.558,0.02,9.585,1.485,0.232,9.698,0.232,0.054,-0.041,11.7,2.3,-24.8,279.2,-1.4,-8.7,67.47,39.34707,16.19397,337.0,299.3918152,5.6,3.0,160.3,12 / 21,6246,2017-05-30 21:28:04:398
1.558,0.02,9.585,1.485,0.232,9.698,0.232,0.054,-0.041,11.7,2.3,-24.8,279.2,-1.4,-8.7,67.47,39.34707,16.19397,337.0,299.3918152,5.6,3.0,160.3,12 / 21,6256,2017-05-30 21:28:04:408
1.673,0.154,9.884,1.485,0.232,9.698,0.068,-0.218,-0.109,11.6,2.3,-24.5,279.2,-1.4,-8.7,67.47,39.34707,16.19397,337.0,299.3918152,5.6,3.0,160.3,12 / 21,6265,2017-05-30 21:28:04:417
1.673,0.154,9.884,1.485,0.232,9.698,0.068,-0.218,-0.109,11.6,2.3,-24.5,279.2,-1.4,-8.7,67.47,39.34707,16.19397,337.0,299.3918152,5.6,3.0,160.3,12 / 21,6276,2017-05-30 21:28:04:428
2.027,0.058,9.828,1.485,0.218,9.698,0.177,-0.068,0.191,11.6,2.7,-24.6,282.7,-1.4,-8.7,67.47,39.34707,16.19397,337.0,299.3918152,5.6,3.0,160.3,12 / 21,6287,2017-05-30 21:28:04:439
2.027,0.058,9.828,1.485,0.218,9.698,0.177,-0.068,0.191,11.6,2.7,-24.6,282.7,-1.4,-8.7,67.47,39.34707,16.19397,337.0,299.3918152,5.6,3.0,160.3,12 / 21,6296,2017-05-30 21:28:04:448
2.027,0.058,9.828,1.485,0.218,9.698,0.177,-0.068,0.191,11.6,2.7,-24.6,282.7,-1.4,-8.7,67.47,39.34707,16.19397,337.0,299.3918152,5.6,3.0,160.3,12 / 21,6305,2017-05-30 21:28:04:457
2.123,0.183,9.828,1.498,0.204,9.698,0.082,-0.204,0.136,11.9,2.8,-24.7,282.7,-1.4,-8.7,67.47,39.34707,16.19397,337.0,299.3918152,5.6,3.0,160.3,12 / 21,6316,2017-05-30 21:28:04:468
2.123,0.183,9.828,1.498,0.204,9.698,0.082,-0.204,0.136,11.9,2.8,-24.7,282.7,-1.4,-8.7,67.47,39.34707,16.19397,337.0,299.3918152,5.6,3.0,160.3,12 / 21,6326,2017-05-30 21:28:04:478
2.219,0.202,9.529,1.525,0.191,9.698,0.586,-0.014,0.136,11.6,2.9,-25.0,282.5,-1.2,-8.8,67.47,39.34707,16.19397,337.0,299.3918152,5.6,3.0,160.3,12 / 21,6336,2017-05-30 21:28:04:488
2.219,0.202,9.529,1.525,0.191,9.698,0.586,-0.014,0.136,11.6,2.9,-25.0,282.5,-1.2,-8.8,67.47,39.34707,16.19397,337.0,299.3918152,5.6,3.0,160.3,12 / 21,6345,2017-05-30 21:28:04:497
2.219,0.202,9.529,1.525,0.191,9.698,0.586,-0.014,0.136,11.6,2.9,-25.0,282.5,-1.2,-8.8,67.47,39.34707,16.19397,337.0,299.3918152,5.6,3.0,160.3,12 / 21,6356,2017-05-30 21:28:04:508
2.219,0.202,9.529,1.525,0.191,9.698,0.586,-0.014,0.136,11.6,2.9,-25.0,282.5,-1.2,-8.8,67.47,39.34707,16.19397,337.0,299.3918152,5.6,3.0,160.3,12 / 21,6366,2017-05-30 21:28:04:518
1.893,0.116,9.286,1.553,0.177,9.684,0.3,-0.123,0.272,11.8,2.8,-25.3,282.5,-1.2,-8.8,67.47,39.34707,16.19397,337.0,299.3918152,5.6,3.0,160.3,12 / 21,6376,2017-05-30 21:28:04:528
1.893,0.116,9.286,1.553,0.177,9.684,0.3,-0.123,0.272,11.8,2.8,-25.3,282.5,-1.2,-8.8,67.47,39.34707,16.19397,337.0,299.3918152,5.6,3.0,160.3,12 / 21,6385,2017-05-30 21:28:04:537
1.893,0.116,9.286,1.553,0.177,9.684,0.3,-0.123,0.272,11.8,2.8,-25.3,282.5,-1.2,-8.8,67.47,39.34707,16.19397,337.0,299.3918152,5.6,3.0,160.3,12 / 21,6395,2017-05-30 21:28:04:547
2.209,0.384,9.679,1.566,0.177,9.684,0.572,-0.054,0.409,11.8,2.5,-25.7,282.1,-1.0,-9.1,67.47,39.34707,16.19397,337.0,299.3918152,5.6,3.0,160.3,12 / 21,6405,2017-05-30 21:28:04:557
2.209,0.384,9.679,1.566,0.177,9.684,0.572,-0.054,0.409,11.8,2.5,-25.7,282.1,-1.0,-9.1,67.47,39.34707,16.19397,337.0,299.3918152,5.6,3.0,160.3,12 / 21,6416,2017-05-30 21:28:04:568
2.209,0.384,9.679,1.566,0.177,9.684,0.572,-0.054,0.409,11.8,2.5,-25.7,282.1,-1.0,-9.1,67.47,39.34707,16.19397,337.0,299.3918152,5.6,3.0,160.3,12 / 21,6425,2017-05-30 21:28:04:577
2.296,0.183,9.651,1.648,0.15,9.67,0.177,-0.245,0.272,11.9,2.1,-25.7,278.6,-1.0,-9.2,67.47,39.34707,16.19397,337.0,299.3918152,5.6,3.0,160.3,12 / 21,6436,2017-05-30 21:28:04:588
2.296,0.183,9.651,1.648,0.15,9.67,0.177,-0.245,0.272,11.9,2.1,-25.7,278.6,-1.0,-9.2,67.47,39.34707,16.19397,337.0,299.3918152,5.6,3.0,160.3,12 / 21,6446,2017-05-30 21:28:04:598
2.296,0.183,9.651,1.648,0.15,9.67,0.177,-0.245,0.272,11.9,2.1,-25.7,278.6,-1.0,-9.2,67.47,39.34707,16.19397,337.0,299.3918152,5.6,3.0,160.3,12 / 21,6455,2017-05-30 21:28:04:607
1.769,-0.248,9.697,1.703,0.136,9.657,-0.068,-0.218,0.136,11.7,1.7,-25.3,278.6,-1.0,-9.2,67.47,39.34707,16.19397,337.0,299.3918152,5.6,3.0,160.3,12 / 21,6465,2017-05-30 21:28:04:617
1.769,-0.248,9.697,1.703,0.136,9.657,-0.068,-0.218,0.136,11.7,1.7,-25.3,278.6,-1.0,-9.2,67.47,39.34707,16.19397,337.0,299.3918152,5.6,3.0,160.3,12 / 21,6476,2017-05-30 21:28:04:628
1.769,-0.248,9.697,1.703,0.136,9.657,-0.068,-0.218,0.136,11.7,1.7,-25.3,278.6,-1.0,-9.2,67.47,39.34707,16.19397,337.0,299.3918152,5.6,3.0,160.3,12 / 21,6485,2017-05-30 21:28:04:637
1.855,-0.191,9.903,1.743,0.136,9.657,0.558,0.15,0.218,11.9,1.8,-25.0,278.1,-0.8,-10.0,69.88,39.34707,16.19397,337.0,299.3918152,5.6,3.0,160.3,12 / 21,6495,2017-05-30 21:28:04:647
1.855,-0.191,9.903,1.743,0.136,9.657,0.558,0.15,0.218,11.9,1.8,-25.0,278.1,-0.8,-10.0,69.88,39.34707,16.19397,337.0,299.3918152,5.6,3.0,160.3,12 / 21,6506,2017-05-30 21:28:04:658
1.702,-0.574,9.884,1.839,0.109,9.643,0.763,-0.109,0.123,11.6,2.2,-25.2,278.1,-0.8,-10.0,69.88,39.34707,16.19397,337.0,299.3918152,5.6,3.0,160.3,12 / 21,6515,2017-05-30 21:28:04:667
1.702,-0.574,9.884,1.839,0.109,9.643,0.763,-0.109,0.123,11.6,2.2,-25.2,278.1,-0.8,-10.0,69.88,39.34707,16.19397,337.0,299.3918152,5.6,3.0,160.3,12 / 21,6525,2017-05-30 21:28:04:677
2.707,0.039,10.314,1.88,0.082,9.63,0.953,-0.054,0.654,11.8,2.4,-25.2,277.8,-0.6,-10.8,69.88,39.34707,16.19397,337.0,299.3918152,5.6,3.0,160.3,12 / 21,6535,2017-05-30 21:28:04:687
2.707,0.039,10.314,1.88,0.082,9.63,0.953,-0.054,0.654,11.8,2.4,-25.2,277.8,-0.6,-10.8,69.88,39.34707,16.19397,337.0,299.3918152,5.6,3.0,160.3,12 / 21,6545,2017-05-30 21:28:04:697
2.64,-0.133,9.884,1.92,0.054,9.63,0.776,-0.027,0.681,11.7,2.0,-25.3,277.8,-0.6,-10.8,69.88,39.34707,16.19397,337.0,299.3918152,5.6,3.0,160.3,12 / 21,6555,2017-05-30 21:28:04:707
2.64,-0.133,9.884,1.92,0.054,9.63,0.776,-0.027,0.681,11.7,2.0,-25.3,277.8,-0.6,-10.8,69.88,39.34707,16.19397,337.0,299.3918152,5.6,3.0,160.3,12 / 21,6565,2017-05-30 21:28:04:717
2.573,-0.162,9.595,1.948,0.041,9.616,0.681,-0.163,0.272,11.6,1.7,-25.2,277.3,-0.3,-11.3,69.88,39.34707,16.19397,337.0,299.3918152,5.6,3.0,160.3,12 / 21,6576,2017-05-30 21:28:04:728
2.085,-0.554,9.436,1.989,0.0,9.602,0.586,-0.15,-0.014,11.9,1.9,-24.8,277.3,-0.3,-11.3,69.88,39.34707,16.19397,337.0,299.3918152,5.6,3.0,160.3,12 / 21,6586,2017-05-30 21:28:04:738
2.085,-0.554,9.436,1.989,0.0,9.602,0.586,-0.15,-0.014,11.9,1.9,-24.8,277.3,-0.3,-11.3,69.88,39.34707,16.19397,337.0,299.3918152,5.6,3.0,160.3,12 / 21,6595,2017-05-30 21:28:04:747
1.903,-0.564,9.51,2.002,-0.014,9.602,0.082,-0.531,-0.163,12.2,2.0,-25.1,276.8,0.0,-11.7,69.88,39.34707,16.19397,337.0,299.3918152,5.6,3.0,160.3,10 / 21,6605,2017-05-30 21:28:04:757
1.903,-0.564,9.51,2.002,-0.014,9.602,0.082,-0.531,-0.163,12.2,2.0,-25.1,276.8,0.0,-11.7,69.88,39.34706,16.19398,337.0,299.3918152,3.9,3.0,185.6,10 / 21,6616,2017-05-30 21:28:04:768
1.855,-0.669,9.884,2.043,-0.041,9.602,-0.15,-0.518,-0.095,12.0,2.2,-24.8,276.8,0.0,-11.7,69.88,39.34706,16.19398,337.0,299.3918152,3.9,3.0,185.6,10 / 21,6626,2017-05-30 21:28:04:778
1.855,-0.669,9.884,2.043,-0.041,9.602,-0.15,-0.518,-0.095,12.0,2.2,-24.8,276.8,0.0,-11.7,69.88,39.34706,16.19398,337.0,299.3918152,3.9,3.0,185.6,10 / 21,6636,2017-05-30 21:28:04:788
2.047,-0.717,9.903,2.07,-0.082,9.589,-0.218,-0.586,0.3,11.9,2.4,-24.8,276.4,0.2,-12.0,69.88,39.34706,16.19398,337.0,299.3918152,3.9,3.0,185.6,10 / 21,6646,2017-05-30 21:28:04:798
2.047,-0.717,9.903,2.07,-0.082,9.589,-0.218,-0.586,0.3,11.9,2.4,-24.8,276.4,0.2,-12.0,69.88,39.34706,16.19398,337.0,299.3918152,3.9,3.0,185.6,10 / 21,6656,2017-05-30 21:28:04:808
2.468,-0.612,9.585,2.098,-0.109,9.589,-0.054,-0.599,0.313,11.9,2.8,-24.5,276.4,0.2,-12.0,69.88,39.34706,16.19398,337.0,299.3918152,3.9,3.0,185.6,10 / 21,6666,2017-05-30 21:28:04:818
