ACCELEROMETER X (m/s²),ACCELEROMETER Y (m/s²),ACCELEROMETER Z (m/s²),GRAVITY X (m/s²),GRAVITY Y (m/s²),GRAVITY Z (m/s²),LINEAR ACCELERATION X (m/s²),LINEAR ACCELERATION Y (m/s²),LINEAR ACCELERATION Z (m/s²),MAGNETIC FIELD X (μT),MAGNETIC FIELD Y (μT),MAGNETIC FIELD Z (μT),ORIENTATION Z (azimuth °),ORIENTATION X (pitch °),ORIENTATION Y (roll °),SOUND LEVEL (dB),LOCATION Latitude : ,LOCATION Longitude : ,LOCATION Altitude ( m),LOCATION Altitude-google ( m),LOCATION Speed ( Kmh),LOCATION Accuracy ( m),LOCATION ORIENTATION (°),Satellites in range,Time since start in ms ,YYYY-MO-DD HH-MI-SS_SSS
-0.29,-0.028,9.725,-0.354,-0.027,9.807,0.054,0.027,-0.027,-18.1,-19.4,-35.9,134.7,0.2,2.1,55.79,39.35338,16.21971,264.0,225.6842499,0.0,4.0,,10 / 20,5,2017-05-30 21:24:04:297
-0.29,-0.028,9.725,-0.354,-0.027,9.807,0.054,0.027,-0.027,-18.1,-19.4,-35.9,134.7,0.2,2.1,55.79,39.35338,16.21971,264.0,225.6842499,0.0,4.0,,10 / 20,15,2017-05-30 21:24:04:307
-0.424,-0.047,9.548,-0.354,-0.027,9.807,0.068,0.0,-0.082,-18.0,-19.0,-36.1,134.7,0.2,2.1,55.79,39.35338,16.21971,264.0,225.6842499,0.0,4.0,,10 / 20,25,2017-05-30 21:24:04:317
-0.424,-0.047,9.548,-0.354,-0.027,9.807,0.068,0.0,-0.082,-18.0,-19.0,-36.1,134.7,0.2,2.1,55.79,39.35338,16.21971,264.0,225.6842499,0.0,4.0,,10 / 20,35,2017-05-30 21:24:04:327
-0.29,0.011,9.632,-0.354,-0.027,9.807,-0.068,-0.014,-0.259,-17.6,-18.8,-36.2,134.7,0.2,2.1,55.79,39.35338,16.21971,264.0,225.6842499,0.0,4.0,,10 / 20,45,2017-05-30 21:24:04:337
-0.29,0.011,9.632,-0.354,-0.027,9.807,-0.068,-0.014,-0.259,-17.6,-18.8,-36.2,134.7,0.2,2.1,55.79,39.35338,16.21971,264.0,225.6842499,0.0,4.0,,10 / 20,54,2017-05-30 21:24:04:346
-0.424,0.068,9.809,-0.354,-0.027,9.807,-0.027,0.0,-0.15,-17.2,-18.6,-37.0,134.7,0.2,2.1,55.79,39.35338,16.21971,264.0,225.6842499,0.0,4.0,,10 / 20,64,2017-05-30 21:24:04:356
-0.424,0.068,9.809,-0.354,-0.027,9.807,-0.027,0.0,-0.15,-17.2,-18.6,-37.0,134.7,0.2,2.1,55.79,39.35338,16.21971,264.0,225.6842499,0.0,4.0,,10 / 20,74,2017-05-30 21:24:04:366
-0.309,-0.018,9.669,-0.354,-0.027,9.807,-0.068,0.082,0.0,-17.4,-18.4,-37.3,134.6,0.2,2.1,55.79,39.35338,16.21971,264.0,225.6842499,0.0,4.0,,10 / 20,84,2017-05-30 21:24:04:376
-0.309,-0.018,9.669,-0.354,-0.027,9.807,-0.068,0.082,0.0,-17.4,-18.4,-37.3,134.6,0.2,2.1,55.79,39.35338,16.21971,264.0,225.6842499,0.0,4.0,,10 / 20,94,2017-05-30 21:24:04:386
-0.386,-0.018,9.501,-0.354,-0.027,9.807,-0.068,-0.054,-0.354,-17.6,-18.5,-38.6,134.6,0.2,2.1,55.79,39.35338,16.21971,264.0,225.6842499,0.0,4.0,,10 / 20,105,2017-05-30 21:24:04:397
-0.386,-0.018,9.501,-0.354,-0.027,9.807,-0.068,-0.054,-0.354,-17.6,-18.5,-38.6,134.6,0.2,2.1,55.79,39.35338,16.21971,264.0,225.6842499,0.0,4.0,,10 / 20,115,2017-05-30 21:24:04:407
-0.386,-0.018,9.501,-0.354,-0.027,9.807,-0.068,-0.054,-0.354,-17.6,-18.5,-38.6,134.6,0.2,2.1,55.79,39.35338,16.21971,264.0,225.6842499,0.0,4.0,,10 / 20,125,2017-05-30 21:24:04:417
-0.415,-0.028,9.781,-0.354,-0.027,9.807,0.054,0.027,-0.3,-18.0,-18.4,-39.4,133.0,0.2,2.1,55.79,39.35338,16.21971,264.0,225.6842499,0.0,4.0,,10 / 20,135,2017-05-30 21:24:04:427
-0.415,-0.028,9.781,-0.354,-0.027,9.807,0.054,0.027,-0.3,-18.0,-18.4,-39.4,133.0,0.2,2.1,55.79,39.35338,16.21971,264.0,225.6842499,0.0,4.0,,10 / 20,145,2017-05-30 21:24:04:437
-0.52,-0.095,9.707,-0.354,-0.027,9.807,0.163,0.068,-0.191,-18.0,-18.4,-39.4,133.0,0.2,2.1,55.79,39.35338,16.21971,264.0,225.6842499,0.0,4.0,,10 / 20,154,2017-05-30 21:24:04:446
-0.52,-0.095,9.707,-0.354,-0.027,9.807,0.163,0.068,-0.191,-18.0,-18.4,-39.4,133.0,0.2,2.1,55.79,39.35338,16.21971,264.0,225.6842499,0.0,4.0,,10 / 20,165,2017-05-30 21:24:04:457
-0.52,-0.095,9.707,-0.354,-0.027,9.807,0.163,0.068,-0.191,-18.0,-18.4,-39.4,133.0,0.2,2.1,55.79,39.35338,16.21971,264.0,225.6842499,0.0,4.0,,10 / 20,174,2017-05-30 21:24:04:466
-0.472,-0.095,9.548,-0.354,-0.027,9.807,0.0,0.0,-0.014,-18.0,-18.4,-39.4,133.0,0.2,2.1,55.79,39.35338,16.21971,264.0,225.6842499,0.0,4.0,,10 / 20,185,2017-05-30 21:24:04:477
-0.472,-0.095,9.548,-0.354,-0.027,9.807,0.0,0.0,-0.014,-18.0,-18.4,-39.4,133.0,0.2,2.1,55.79,39.35338,16.21971,264.0,225.6842499,0.0,4.0,,10 / 20,195,2017-05-30 21:24:04:487
-0.309,-0.018,9.669,-0.354,-0.027,9.807,-0.109,-0.054,-0.259,-18.0,-18.4,-39.4,133.0,0.2,2.1,55.79,39.35338,16.21971,264.0,225.6842499,0.0,4.0,,10 / 20,204,2017-05-30 21:24:04:496
-0.309,-0.018,9.669,-0.354,-0.027,9.807,-0.109,-0.054,-0.259,-18.0,-18.4,-39.4,133.0,0.2,2.1,55.79,39.35338,16.21971,264.0,225.6842499,0.0,4.0,,10 / 20,215,2017-05-30 21:24:04:507
-0.376,-0.047,9.669,-0.354,-0.027,9.807,0.054,0.014,-0.136,-18.0,-18.4,-39.4,133.0,0.2,2.1,55.79,39.35338,16.21971,264.0,225.6842499,0.0,4.0,,10 / 20,224,2017-05-30 21:24:04:516
-0.415,-0.085,9.51,-0.354,-0.027,9.807,0.054,0.014,-0.136,-18.0,-18.4,-39.4,133.0,0.2,2.1,55.79,39.35338,16.21971,264.0,225.6842499,0.0,4.0,,10 / 20,237,2017-05-30 21:24:04:529
-0.415,-0.085,9.51,-0.354,-0.027,9.807,0.054,0.014,-0.136,-18.0,-18.4,-39.4,133.0,0.2,2.1,55.79,39.35338,16.21971,264.0,225.6842499,0.0,4.0,,10 / 20,244,2017-05-30 21:24:04:536
-0.348,-0.037,9.632,-0.354,-0.027,9.807,0.082,0.027,-0.123,-18.0,-18.4,-39.4,133.0,0.2,2.1,55.79,39.35338,16.21971,264.0,225.6842499,0.0,4.0,,10 / 20,254,2017-05-30 21:24:04:546
-0.348,-0.037,9.632,-0.354,-0.027,9.807,0.082,0.027,-0.123,-18.0,-18.4,-39.4,133.0,0.2,2.1,55.79,39.35338,16.21971,264.0,225.6842499,0.0,4.0,,10 / 20,265,2017-05-30 21:24:04:557
-0.415,-0.047,9.454,-0.354,-0.027,9.807,0.014,0.0,-0.177,-18.0,-18.4,-39.4,133.0,0.2,2.1,55.79,39.35338,16.21971,264.0,225.6842499,0.0,4.0,,10 / 20,274,2017-05-30 21:24:04:566
-0.281,-0.009,9.651,-0.354,-0.027,9.807,-0.054,-0.014,-0.354,-18.0,-18.4,-39.4,133.0,0.2,2.1,55.79,39.35338,16.21971,264.0,225.6842499,0.0,4.0,,10 / 20,285,2017-05-30 21:24:04:577
-0.281,-0.009,9.651,-0.354,-0.027,9.807,-0.054,-0.014,-0.354,-18.0,-18.4,-39.4,133.0,0.2,2.1,55.79,39.35338,16.21971,264.0,225.6842499,0.0,4.0,,10 / 20,295,2017-05-30 21:24:04:587
-0.396,-0.028,9.473,-0.354,-0.027,9.807,-0.027,0.0,-0.068,-18.0,-18.4,-39.4,133.0,0.2,2.1,55.79,39.35338,16.21971,264.0,225.6842499,0.0,4.0,,10 / 20,305,2017-05-30 21:24:04:597
-0.396,-0.028,9.473,-0.354,-0.027,9.807,-0.027,0.0,-0.068,-18.0,-18.4,-39.4,133.0,0.2,2.1,55.79,39.35338,16.21971,264.0,225.6842499,0.0,4.0,,10 / 20,315,2017-05-30 21:24:04:607
-0.242,0.049,9.669,-0.354,-0.027,9.807,-0.041,0.0,-0.341,-18.0,-18.4,-39.4,133.0,0.2,2.1,63.6,39.35338,16.21971,264.0,225.6842499,0.0,4.0,,10 / 20,325,2017-05-30 21:24:04:617
-0.242,0.049,9.669,-0.354,-0.027,9.807,-0.041,0.0,-0.341,-18.0,-18.4,-39.4,133.0,0.2,2.1,63.6,39.35338,16.21971,264.0,225.6842499,0.0,4.0,,10 / 20,334,2017-05-30 21:24:04:626
-0.376,-0.018,9.707,-0.354,-0.027,9.807,0.123,0.068,-0.136,-18.0,-18.4,-39.4,133.0,0.2,2.1,63.6,39.35338,16.21971,264.0,225.6842499,0.0,4.0,,10 / 20,344,2017-05-30 21:24:04:636
-0.376,-0.018,9.707,-0.354,-0.027,9.807,-0.014,0.014,-0.095,-18.0,-18.4,-39.4,133.0,0.2,2.1,63.6,39.35338,16.21971,264.0,225.6842499,0.0,4.0,,10 / 20,355,2017-05-30 21:24:04:647
-0.348,-0.066,9.576,-0.354,-0.027,9.807,0.095,0.027,-0.082,-18.0,-18.4,-39.4,133.0,0.2,2.1,63.6,39.35338,16.21971,264.0,225.6842499,0.0,4.0,,10 / 20,364,2017-05-30 21:24:04:656
-0.348,-0.066,9.576,-0.354,-0.027,9.807,0.095,0.027,-0.082,-18.0,-18.4,-39.4,133.0,0.2,2.1,63.6,39.35338,16.21971,264.0,225.6842499,0.0,4.0,,10 / 20,375,2017-05-30 21:24:04:667
-0.348,-0.066,9.576,-0.354,-0.027,9.807,0.095,0.027,-0.082,-18.0,-18.4,-39.4,133.0,0.2,2.1,63.6,39.35338,16.21971,264.0,225.6842499,0.0,4.0,,10 / 20,384,2017-05-30 21:24:04:676
-0.415,-0.037,9.595,-0.354,-0.027,9.807,0.0,0.027,-0.123,-18.0,-18.4,-39.4,133.0,0.2,2.1,63.6,39.35338,16.21971,264.0,225.6842499,0.0,4.0,,10 / 20,395,2017-05-30 21:24:04:687
-0.415,-0.037,9.595,-0.354,-0.027,9.807,-0.054,0.0,-0.218,-18.1,-18.5,-39.1,134.6,0.2,2.1,63.6,39.35338,16.21971,264.0,225.6842499,0.0,4.0,,10 / 20,404,2017-05-30 21:24:04:696
-0.415,-0.037,9.595,-0.354,-0.027,9.807,-0.054,0.0,-0.218,-18.1,-18.5,-39.1,134.6,0.2,2.1,63.6,39.35338,16.21971,264.0,225.6842499,0.0,4.0,,10 / 20,414,2017-05-30 21:24:04:706
-0.252,-0.047,9.707,-0.354,-0.027,9.807,-0.095,-0.027,0.0,-18.1,-18.6,-38.6,134.6,0.2,2.1,63.6,39.35338,16.21971,264.0,225.6842499,0.0,4.0,,10 / 20,424,2017-05-30 21:24:04:716
-0.252,-0.047,9.707,-0.354,-0.027,9.807,-0.095,-0.027,0.0,-18.1,-18.6,-38.6,134.6,0.2,2.1,63.6,39.35338,16.21971,264.0,225.6842499,0.0,4.0,,10 / 20,435,2017-05-30 21:24:04:727
-0.271,-0.028,9.716,-0.354,-0.027,9.807,-0.095,-0.041,-0.218,-18.1,-18.8,-37.9,134.6,0.2,2.1,63.6,39.35338,16.21971,264.0,225.6842499,0.0,4.0,,10 / 20,445,2017-05-30 21:24:04:737
-0.271,-0.028,9.716,-0.354,-0.027,9.807,-0.095,-0.041,-0.218,-18.1,-18.8,-37.9,134.6,0.2,2.1,63.6,39.35338,16.21971,264.0,225.6842499,0.0,4.0,,10 / 20,459,2017-05-30 21:24:04:751
-0.424,-0.076,9.707,-0.354,-0.027,9.807,0.095,0.0,-0.095,-18.1,-19.0,-37.1,134.6,0.2,2.1,63.6,39.35338,16.21971,264.0,225.6842499,0.0,4.0,,10 / 21,465,2017-05-30 21:24:04:757
-0.424,-0.076,9.707,-0.354,-0.027,9.807,0.095,0.0,-0.095,-18.1,-19.0,-37.1,134.6,0.2,2.1,63.6,39.35338,16.2197,262.0,225.6842499,1.8,4.0,225.3,10 / 21,475,2017-05-30 21:24:04:767
-0.424,-0.076,9.707,-0.354,-0.027,9.807,0.095,0.0,-0.095,-18.1,-19.0,-37.1,134.6,0.2,2.1,63.6,39.35338,16.2197,262.0,225.6842499,1.8,4.0,225.3,10 / 21,485,2017-05-30 21:24:04:777
-0.405,-0.057,9.735,-0.354,-0.027,9.807,0.082,0.0,-0.054,-18.1,-19.1,-36.3,134.7,0.2,2.1,63.6,39.35338,16.2197,262.0,225.6842499,1.8,4.0,225.3,10 / 21,495,2017-05-30 21:24:04:787
-0.405,-0.057,9.735,-0.354,-0.027,9.807,0.082,0.0,-0.054,-18.1,-19.1,-36.3,134.7,0.2,2.1,63.6,39.35338,16.2197,262.0,225.6842499,1.8,4.0,225.3,10 / 21,504,2017-05-30 21:24:04:796
-0.424,-0.095,9.613,-0.354,-0.027,9.807,-0.041,-0.027,-0.068,-18.1,-19.1,-36.3,134.7,0.2,2.1,63.6,39.35338,16.2197,262.0,225.6842499,1.8,4.0,225.3,10 / 21,514,2017-05-30 21:24:04:806
-0.424,-0.095,9.613,-0.354,-0.027,9.807,-0.041,-0.027,-0.068,-18.1,-19.1,-36.3,134.7,0.2,2.1,63.6,39.35338,16.2197,262.0,225.6842499,1.8,4.0,225.3,10 / 21,524,2017-05-30 21:24:04:816
-0.29,-0.028,9.669,-0.354,-0.027,9.807,-0.068,-0.054,-0.191,-18.1,-19.1,-36.0,134.7,0.2,2.1,63.6,39.35338,16.2197,262.0,225.6842499,1.8,4.0,225.3,10 / 21,535,2017-05-30 21:24:04:827
-0.29,-0.028,9.669,-0.354,-0.027,9.807,-0.068,-0.054,-0.191,-18.1,-19.1,-36.0,134.7,0.2,2.1,63.6,39.35338,16.2197,262.0,225.6842499,1.8,4.0,225.3,10 / 21,544,2017-05-30 21:24:04:836
-0.453,-0.037,9.8,-0.354,-0.027,9.807,0.068,0.0,-0.136,-17.6,-19.2,-35.7,134.7,0.2,2.1,63.6,39.35338,16.2197,262.0,225.6842499,1.8,4.0,225.3,10 / 21,554,2017-05-30 21:24:04:846
-0.453,-0.037,9.8,-0.354,-0.027,9.807,0.068,0.0,-0.136,-17.6,-19.2,-35.7,134.7,0.2,2.1,63.6,39.35338,16.2197,262.0,225.6842499,1.8,4.0,225.3,10 / 21,565,2017-05-30 21:24:04:857
-0.386,-0.124,9.557,-0.354,-0.027,9.807,-0.095,0.0,0.0,-17.6,-19.2,-35.7,134.7,0.2,2.1,63.6,39.35338,16.2197,262.0,225.6842499,1.8,4.0,225.3,10 / 21,574,2017-05-30 21:24:04:866
-0.29,0.03,9.669,-0.354,-0.027,9.807,-0.095,0.0,0.0,-17.6,-19.2,-35.7,134.7,0.2,2.1,63.6,39.35338,16.2197,262.0,225.6842499,1.8,4.0,225.3,10 / 21,584,2017-05-30 21:24:04:876
-0.29,0.03,9.669,-0.354,-0.027,9.807,-0.095,0.0,0.0,-17.6,-19.2,-35.7,134.7,0.2,2.1,63.6,39.35338,16.2197,262.0,225.6842499,1.8,4.0,225.3,10 / 21,595,2017-05-30 21:24:04:887
-0.386,-0.047,9.595,-0.354,-0.014,9.807,-0.136,0.014,-0.15,-17.4,-19.1,-35.8,136.2,0.2,2.1,63.6,39.35338,16.2197,262.0,225.6842499,1.8,4.0,225.3,10 / 21,605,2017-05-30 21:24:04:897
-0.386,-0.047,9.595,-0.354,-0.014,9.807,-0.136,0.014,-0.15,-17.4,-19.1,-35.8,136.2,0.2,2.1,63.6,39.35338,16.2197,262.0,225.6842499,1.8,4.0,225.3,10 / 21,614,2017-05-30 21:24:04:906
-0.242,0.02,9.66,-0.354,-0.014,9.807,-0.027,-0.027,-0.218,-17.8,-19.3,-35.8,136.2,0.2,2.1,63.6,39.35338,16.2197,262.0,225.6842499,1.8,4.0,225.3,10 / 21,625,2017-05-30 21:24:04:917
-0.405,-0.037,9.623,-0.354,-0.027,9.807,0.123,0.041,-0.15,-18.2,-19.4,-36.2,134.6,0.1,2.1,55.82,39.35338,16.2197,262.0,225.6842499,1.8,4.0,225.3,10 / 21,634,2017-05-30 21:24:04:926
-0.405,-0.037,9.623,-0.354,-0.027,9.807,0.123,0.041,-0.15,-18.2,-19.4,-36.2,134.6,0.1,2.1,55.82,39.35338,16.2197,262.0,225.6842499,1.8,4.0,225.3,10 / 21,644,2017-05-30 21:24:04:936
-0.405,-0.037,9.623,-0.354,-0.027,9.807,0.123,0.041,-0.15,-18.2,-19.4,-36.2,134.6,0.1,2.1,55.82,39.35338,16.2197,262.0,225.6842499,1.8,4.0,225.3,10 / 21,654,2017-05-30 21:24:04:946
-0.261,-0.018,9.688,-0.368,-0.027,9.807,-0.041,-0.014,-0.068,-18.3,-19.4,-36.0,134.6,0.1,2.1,55.82,39.35338,16.2197,262.0,225.6842499,1.8,4.0,225.3,10 / 21,665,2017-05-30 21:24:04:957
-0.261,-0.018,9.688,-0.368,-0.027,9.807,-0.041,-0.014,-0.068,-18.3,-19.4,-36.0,134.6,0.1,2.1,55.82,39.35338,16.2197,262.0,225.6842499,1.8,4.0,225.3,10 / 21,675,2017-05-30 21:24:04:967
-0.271,0.049,9.744,-0.368,-0.027,9.807,-0.014,-0.054,-0.191,-18.7,-19.3,-36.0,133.2,0.2,2.1,55.82,39.35338,16.2197,262.0,225.6842499,1.8,4.0,225.3,10 / 21,685,2017-05-30 21:24:04:977
-0.271,0.049,9.744,-0.368,-0.027,9.807,-0.014,-0.054,-0.191,-18.7,-19.3,-36.0,133.2,0.2,2.1,55.82,39.35338,16.2197,262.0,225.6842499,1.8,4.0,225.3,10 / 21,695,2017-05-30 21:24:04:987
-0.386,-0.037,9.66,-0.368,-0.027,9.807,0.109,0.068,-0.068,-18.7,-19.2,-36.5,133.2,0.2,2.1,55.82,39.35338,16.2197,262.0,225.6842499,1.8,4.0,225.3,10 / 21,704,2017-05-30 21:24:04:996
-0.386,-0.037,9.66,-0.368,-0.027,9.807,0.109,0.068,-0.068,-18.7,-19.2,-36.5,133.2,0.2,2.1,55.82,39.35338,16.2197,262.0,225.6842499,1.8,4.0,225.3,10 / 21,714,2017-05-30 21:24:05:006
-0.386,-0.037,9.66,-0.368,-0.027,9.807,0.109,0.068,-0.068,-18.7,-19.2,-36.5,133.2,0.2,2.1,55.82,39.35338,16.2197,262.0,225.6842499,1.8,4.0,225.3,10 / 21,724,2017-05-30 21:24:05:016
-0.376,-0.057,9.744,-0.368,-0.027,9.807,0.095,0.054,-0.027,-18.6,-19.0,-37.2,133.2,0.2,2.1,55.82,39.35338,16.2197,262.0,225.6842499,1.8,4.0,225.3,10 / 21,734,2017-05-30 21:24:05:026
-0.376,-0.057,9.744,-0.368,-0.027,9.807,0.095,0.054,-0.027,-18.6,-19.0,-37.2,133.2,0.2,2.1,55.82,39.35338,16.2197,262.0,225.6842499,1.8,4.0,225.3,10 / 21,745,2017-05-30 21:24:05:037
-0.376,-0.057,9.744,-0.368,-0.027,9.807,0.095,0.054,-0.027,-18.6,-19.0,-37.2,133.2,0.2,2.1,55.82,39.35338,16.2197,262.0,225.6842499,1.8,4.0,225.3,10 / 21,755,2017-05-30 21:24:05:047
-0.405,-0.114,9.632,-0.368,-0.027,9.807,0.0,-0.027,-0.068,-18.2,-19.1,-37.0,133.2,0.2,2.1,55.82,39.35338,16.2197,262.0,225.6842499,1.8,4.0,225.3,10 / 21,765,2017-05-30 21:24:05:057
-0.309,-0.009,9.781,-0.354,-0.027,9.807,-0.041,-0.082,-0.177,-18.2,-19.3,-37.3,134.6,0.2,2.1,55.82,39.35338,16.2197,262.0,225.6842499,1.8,4.0,225.3,10 / 21,775,2017-05-30 21:24:05:067
-0.309,-0.009,9.781,-0.354,-0.027,9.807,-0.041,-0.082,-0.177,-18.2,-19.3,-37.3,134.6,0.2,2.1,55.82,39.35338,16.2197,262.0,225.6842499,1.8,4.0,225.3,10 / 21,784,2017-05-30 21:24:05:076
-0.463,-0.047,9.763,-0.354,-0.027,9.807,0.054,0.027,-0.027,-18.1,-19.0,-36.4,134.6,0.2,2.1,55.82,39.35338,16.2197,262.0,225.6842499,1.8,4.0,225.3,10 / 21,795,2017-05-30 21:24:05:087
-0.463,-0.047,9.763,-0.354,-0.027,9.807,0.054,0.027,-0.027,-18.1,-19.0,-36.4,134.6,0.2,2.1,55.82,39.35338,16.2197,262.0,225.6842499,1.8,4.0,225.3,10 / 21,804,2017-05-30 21:24:05:096
-0.424,-0.114,9.66,-0.354,-0.041,9.807,-0.095,0.0,-0.041,-17.9,-19.0,-36.4,134.7,0.2,2.1,55.82,39.35338,16.2197,262.0,225.6842499,1.8,4.0,225.3,10 / 21,815,2017-05-30 21:24:05:107
-0.424,-0.114,9.66,-0.354,-0.041,9.807,-0.095,0.0,-0.041,-17.9,-19.0,-36.4,134.7,0.2,2.1,55.82,39.35338,16.2197,262.0,225.6842499,1.8,4.0,225.3,10 / 21,825,2017-05-30 21:24:05:117
-0.338,-0.009,9.716,-0.354,-0.041,9.807,-0.068,-0.068,-0.15,-18.2,-19.0,-36.2,134.7,0.2,2.1,55.82,39.35338,16.2197,262.0,225.6842499,1.8,4.0,225.3,10 / 21,835,2017-05-30 21:24:05:127
-0.338,-0.009,9.716,-0.354,-0.041,9.807,-0.068,-0.068,-0.15,-18.2,-19.0,-36.2,134.7,0.2,2.1,55.82,39.35338,16.2197,262.0,225.6842499,1.8,4.0,225.3,10 / 21,845,2017-05-30 21:24:05:137
-0.51,-0.066,9.604,-0.354,-0.041,9.807,0.027,0.041,-0.095,-17.9,-19.0,-36.1,134.8,0.2,2.1,55.82,39.35338,16.2197,262.0,225.6842499,1.8,4.0,225.3,10 / 21,854,2017-05-30 21:24:05:146
-0.51,-0.066,9.604,-0.354,-0.041,9.807,0.027,0.041,-0.095,-17.9,-19.0,-36.1,134.8,0.2,2.1,55.82,39.35338,16.2197,262.0,225.6842499,1.8,4.0,225.3,10 / 21,865,2017-05-30 21:24:05:157
-0.434,-0.057,9.623,-0.354,-0.027,9.807,-0.15,-0.027,-0.204,-17.9,-19.0,-36.2,134.8,0.2,2.1,55.82,39.35338,16.2197,262.0,225.6842499,1.8,4.0,225.3,10 / 21,874,2017-05-30 21:24:05:166
-0.319,-0.066,9.735,-0.354,-0.027,9.807,-0.15,-0.027,-0.204,-17.9,-19.0,-36.2,134.8,0.2,2.1,55.82,39.35338,16.2197,262.0,225.6842499,1.8,4.0,225.3,10 / 21,885,2017-05-30 21:24:05:177
-0.319,-0.066,9.735,-0.354,-0.027,9.807,-0.15,-0.027,-0.204,-17.9,-19.0,-36.2,134.8,0.2,2.1,55.82,39.35338,16.2197,262.0,225.6842499,1.8,4.0,225.3,10 / 21,894,2017-05-30 21:24:05:186
-0.405,-0.095,9.548,-0.354,-0.041,9.807,-0.123,-0.041,-0.095,-17.6,-19.0,-36.2,134.7,0.2,2.1,55.82,39.35338,16.2197,262.0,225.6842499,1.8,4.0,225.3,10 / 21,905,2017-05-30 21:24:05:197
-0.405,-0.095,9.548,-0.354,-0.041,9.807,-0.123,-0.041,-0.095,-17.6,-19.0,-36.2,134.7,0.2,2.1,55.82,39.35338,16.2197,262.0,225.6842499,1.8,4.0,225.3,10 / 21,915,2017-05-30 21:24:05:207
-0.281,0.039,9.837,-0.354,-0.041,9.807,-0.041,-0.041,-0.259,-17.5,-19.2,-36.7,134.7,0.2,2.1,55.82,39.35338,16.2197,262.0,225.6842499,1.8,4.0,225.3,10 / 21,925,2017-05-30 21:24:05:217
-0.281,0.039,9.837,-0.354,-0.041,9.807,-0.041,-0.041,-0.259,-17.5,-19.2,-36.7,134.7,0.2,2.1,55.82,39.35338,16.2197,262.0,225.6842499,1.8,4.0,225.3,10 / 21,935,2017-05-30 21:24:05:227
-0.472,-0.057,9.557,-0.354,-0.041,9.807,0.082,0.068,0.027,-17.8,-19.6,-36.4,136.2,0.2,2.1,55.82,39.35338,16.2197,262.0,225.6842499,1.8,4.0,225.3,10 / 21,944,2017-05-30 21:24:05:236
-0.472,-0.057,9.557,-0.354,-0.041,9.807,-0.109,-0.014,-0.245,-17.8,-19.6,-36.4,136.2,0.2,2.1,53.13,39.35338,16.2197,262.0,225.6842499,1.8,4.0,225.3,10 / 21,955,2017-05-30 21:24:05:247
-0.319,0.001,9.632,-0.368,-0.041,9.807,0.068,0.027,0.0,-17.8,-19.6,-36.4,136.2,0.2,2.1,53.13,39.35338,16.2197,262.0,225.6842499,1.8,4.0,225.3,10 / 21,966,2017-05-30 21:24:05:258
-0.319,0.001,9.632,-0.368,-0.041,9.807,0.068,0.027,0.0,-17.8,-19.6,-36.4,136.2,0.2,2.1,53.13,39.35338,16.2197,262.0,225.6842499,1.8,4.0,225.3,10 / 21,975,2017-05-30 21:24:05:267
-0.319,0.001,9.632,-0.368,-0.041,9.807,0.068,0.027,0.0,-17.8,-19.6,-36.4,136.2,0.2,2.1,53.13,39.35338,16.2197,262.0,225.6842499,1.8,4.0,225.3,10 / 21,985,2017-05-30 21:24:05:277
-0.233,0.03,9.744,-0.381,-0.041,9.807,-0.109,0.027,-0.204,-18.1,-19.7,-36.4,136.2,0.2,2.1,53.13,39.35338,16.2197,262.0,225.6842499,1.8,4.0,225.3,10 / 21,995,2017-05-30 21:24:05:287
-0.233,0.03,9.744,-0.381,-0.041,9.807,0.027,0.041,-0.191,-17.7,-19.6,-36.4,136.2,0.2,2.1,53.13,39.35338,16.2197,262.0,225.6842499,1.8,4.0,225.3,10 / 21,1005,2017-05-30 21:24:05:297
-0.214,0.049,9.707,-0.381,-0.041,9.807,-0.014,0.068,-0.15,-17.6,-19.3,-36.4,136.2,0.2,2.1,53.13,39.35338,16.2197,262.0,225.6842499,1.8,4.0,225.3,10 / 21,1015,2017-05-30 21:24:05:307
-0.214,0.049,9.707,-0.381,-0.041,9.807,-0.014,0.068,-0.15,-17.6,-19.3,-36.4,136.2,0.2,2.1,53.13,39.35338,16.2197,262.0,225.6842499,1.8,4.0,225.3,10 / 21,1024,2017-05-30 21:24:05:316
-0.367,-0.009,9.51,-0.381,-0.041,9.807,0.054,0.041,-0.3,-17.8,-19.5,-37.2,134.6,0.2,2.2,53.13,39.35338,16.2197,262.0,225.6842499,1.8,4.0,225.3,10 / 21,1035,2017-05-30 21:24:05:327
-0.367,-0.009,9.51,-0.381,-0.041,9.807,0.054,0.041,-0.3,-17.8,-19.5,-37.2,134.6,0.2,2.2,53.13,39.35338,16.2197,262.0,225.6842499,1.8,4.0,225.3,10 / 21,1045,2017-05-30 21:24:05:337
-0.271,-0.076,9.501,-0.381,-0.041,9.807,0.15,0.095,-0.041,-18.0,-19.2,-37.1,134.6,0.2,2.2,53.13,39.35338,16.2197,262.0,225.6842499,1.8,4.0,225.3,10 / 21,1055,2017-05-30 21:24:05:347
-0.271,-0.076,9.501,-0.381,-0.041,9.807,0.15,0.095,-0.041,-18.0,-19.2,-37.1,134.6,0.2,2.2,53.13,39.35338,16.2197,262.0,225.6842499,1.8,4.0,225.3,10 / 21,1065,2017-05-30 21:24:05:357
-0.271,-0.076,9.501,-0.381,-0.041,9.807,0.15,0.095,-0.041,-18.0,-19.2,-37.1,134.6,0.2,2.2,53.13,39.35338,16.2197,262.0,225.6842499,1.8,4.0,225.3,10 / 21,1074,2017-05-30 21:24:05:366
-0.309,0.001,9.623,-0.381,-0.041,9.807,-0.041,-0.041,-0.368,-18.2,-19.3,-37.1,134.6,0.2,2.2,53.13,39.35338,16.2197,262.0,225.6842499,1.8,4.0,225.3,10 / 21,1084,2017-05-30 21:24:05:376
-0.309,0.001,9.623,-0.381,-0.041,9.807,-0.041,-0.041,-0.368,-18.2,-19.3,-37.1,134.6,0.2,2.2,53.13,39.35338,16.2197,262.0,225.6842499,1.8,4.0,225.3,10 / 21,1095,2017-05-30 21:24:05:387
-0.166,0.049,9.707,-0.381,-0.041,9.807,0.082,0.041,-0.191,-18.1,-19.5,-37.0,134.6,0.2,2.2,53.13,39.35338,16.2197,262.0,225.6842499,1.8,4.0,225.3,10 / 21,1104,2017-05-30 21:24:05:396
-0.271,-0.037,9.688,-0.381,-0.041,9.807,0.218,0.082,-0.095,-17.8,-19.5,-36.0,134.6,0.2,2.2,53.13,39.35338,16.2197,262.0,225.6842499,1.8,4.0,225.3,10 / 21,1114,2017-05-30 21:24:05:406
-0.271,-0.037,9.688,-0.381,-0.041,9.807,0.218,0.082,-0.095,-17.8,-19.5,-36.0,134.6,0.2,2.2,53.13,39.35338,16.2197,262.0,225.6842499,1.8,4.0,225.3,10 / 21,1124,2017-05-30 21:24:05:416
-0.501,-0.047,9.651,-0.381,-0.041,9.807,0.123,0.014,-0.123,-17.9,-19.6,-36.2,136.1,0.2,2.2,53.13,39.35338,16.2197,262.0,225.6842499,1.8,4.0,225.3,10 / 21,1134,2017-05-30 21:24:05:426
-0.501,-0.047,9.651,-0.381,-0.041,9.807,0.123,0.014,-0.123,-17.9,-19.6,-36.2,136.1,0.2,2.2,53.13,39.35338,16.2197,262.0,225.6842499,1.8,4.0,225.3,10 / 21,1145,2017-05-30 21:24:05:437
-0.654,-0.21,9.408,-0.381,-0.041,9.807,-0.109,0.0,-0.15,-17.9,-19.6,-36.3,136.1,0.2,2.2,53.13,39.35338,16.2197,262.0,225.6842499,1.8,4.0,225.3,10 / 21,1155,2017-05-30 21:24:05:447
-0.654,-0.21,9.408,-0.381,-0.041,9.807,-0.109,0.0,-0.15,-17.9,-19.6,-36.3,136.1,0.2,2.2,53.13,39.35338,16.2197,262.0,225.6842499,1.8,4.0,225.3,10 / 21,1164,2017-05-30 21:24:05:456
-0.654,-0.21,9.408,-0.381,-0.041,9.807,-0.109,0.0,-0.15,-17.9,-19.6,-36.3,136.1,0.2,2.2,53.13,39.35338,16.2197,262.0,225.6842499,1.8,4.0,225.3,10 / 21,1174,2017-05-30 21:24:05:466
-0.405,-0.047,9.669,-0.381,-0.054,9.807,0.15,0.15,0.136,-17.9,-19.1,-36.3,134.6,0.2,2.2,53.13,39.35338,16.2197,262.0,225.6842499,1.8,4.0,225.3,10 / 21,1184,2017-05-30 21:24:05:476
-0.405,-0.047,9.669,-0.381,-0.054,9.807,0.15,0.15,0.136,-17.9,-19.1,-36.3,134.6,0.2,2.2,53.13,39.35338,16.2197,262.0,225.6842499,1.8,4.0,225.3,10 / 21,1194,2017-05-30 21:24:05:486
-0.463,0.03,9.707,-0.381,-0.054,9.807,-0.014,0.014,-0.136,-18.0,-19.0,-36.4,134.6,0.2,2.2,53.13,39.35338,16.2197,262.0,225.6842499,1.8,4.0,225.3,10 / 21,1205,2017-05-30 21:24:05:497
-0.463,0.03,9.707,-0.381,-0.054,9.807,-0.014,0.014,-0.136,-18.0,-19.0,-36.4,134.6,0.2,2.2,53.13,39.35338,16.2197,262.0,225.6842499,1.8,4.0,225.3,10 / 21,1215,2017-05-30 21:24:05:507
-0.415,-0.095,9.613,-0.381,-0.054,9.807,-0.068,0.082,-0.095,-18.0,-19.1,-36.2,134.6,0.2,2.2,53.13,39.35338,16.2197,262.0,225.6842499,1.8,4.0,225.3,10 / 21,1224,2017-05-30 21:24:05:516
-0.415,-0.095,9.613,-0.381,-0.054,9.807,-0.068,0.082,-0.095,-18.0,-19.1,-36.2,134.6,0.2,2.2,53.13,39.35338,16.2197,262.0,225.6842499,1.8,4.0,225.3,10 / 21,1235,2017-05-30 21:24:05:527
-0.415,-0.104,9.557,-0.381,-0.054,9.807,-0.027,-0.027,-0.191,-17.7,-19.0,-36.1,134.7,0.3,2.2,53.13,39.35338,16.2197,262.0,225.6842499,1.8,4.0,225.3,10 / 21,1245,2017-05-30 21:24:05:537
-0.415,-0.104,9.557,-0.381,-0.054,9.807,-0.027,-0.041,-0.245,-17.9,-19.1,-36.3,134.7,0.3,2.2,53.13,39.35338,16.2197,262.0,225.6842499,1.8,4.0,225.3,10 / 21,1254,2017-05-30 21:24:05:546
-0.415,-0.104,9.557,-0.381,-0.054,9.807,-0.027,-0.041,-0.245,-17.9,-19.1,-36.3,134.7,0.3,2.2,53.13,39.35338,16.2197,262.0,225.6842499,1.8,4.0,225.3,10 / 21,1264,2017-05-30 21:24:05:556
-0.319,0.03,9.688,-0.368,-0.054,9.807,-0.082,-0.027,-0.123,-18.0,-19.1,-36.5,134.7,0.3,2.2,53.13,39.35338,16.2197,262.0,225.6842499,1.8,4.0,225.3,10 / 21,1274,2017-05-30 21:24:05:566
-0.443,-0.085,9.679,-0.368,-0.054,9.807,-0.054,-0.027,-0.272,-18.0,-19.1,-35.9,134.8,0.3,2.1,54.74,39.35338,16.2197,262.0,225.6842499,1.8,4.0,225.3,10 / 21,1285,2017-05-30 21:24:05:577
-0.443,-0.085,9.679,-0.368,-0.054,9.807,-0.054,-0.027,-0.272,-18.0,-19.1,-35.9,134.8,0.3,2.1,54.74,39.35338,16.2197,262.0,225.6842499,1.8,4.0,225.3,10 / 21,1294,2017-05-30 21:24:05:586
-0.443,-0.085,9.679,-0.368,-0.054,9.807,-0.054,-0.027,-0.272,-18.0,-19.1,-35.9,134.8,0.3,2.1,54.74,39.35338,16.2197,262.0,225.6842499,1.8,4.0,225.3,10 / 21,1305,2017-05-30 21:24:05:597
-0.415,-0.076,9.548,-0.368,-0.054,9.807,0.068,0.054,0.041,-18.2,-19.0,-36.3,134.8,0.3,2.1,54.74,39.35338,16.2197,262.0,225.6842499,1.8,4.0,225.3,10 / 21,1315,2017-05-30 21:24:05:607
-0.415,-0.076,9.548,-0.368,-0.054,9.807,0.068,0.054,0.041,-18.2,-19.0,-36.3,134.8,0.3,2.1,54.74,39.35338,16.2197,262.0,225.6842499,1.8,4.0,225.3,10 / 21,1325,2017-05-30 21:24:05:617
-0.367,-0.018,9.697,-0.368,-0.054,9.807,-0.136,-0.068,-0.191,-17.9,-18.9,-36.1,134.8,0.3,2.1,54.74,39.35338,16.2197,262.0,225.6842499,1.8,4.0,225.3,10 / 21,1334,2017-05-30 21:24:05:626
-0.367,-0.018,9.697,-0.368,-0.054,9.807,-0.136,-0.068,-0.191,-17.9,-18.9,-36.1,134.8,0.3,2.1,54.74,39.35338,16.2197,262.0,225.6842499,1.8,4.0,225.3,10 / 21,1344,2017-05-30 21:24:05:636
-0.242,0.03,9.697,-0.368,-0.054,9.807,0.014,0.041,-0.109,-18.0,-19.0,-36.8,134.8,0.3,2.1,54.74,39.35338,16.2197,262.0,225.6842499,1.8,4.0,225.3,10 / 21,1354,2017-05-30 21:24:05:646
-0.242,0.03,9.697,-0.368,-0.054,9.807,0.014,0.041,-0.109,-18.0,-19.0,-36.8,134.8,0.3,2.1,54.74,39.35338,16.2197,262.0,225.6842499,1.8,4.0,225.3,10 / 21,1364,2017-05-30 21:24:05:656
-0.453,-0.057,9.632,-0.368,-0.054,9.807,0.136,0.082,-0.109,-18.1,-18.8,-37.3,134.7,0.3,2.1,54.74,39.35338,16.2197,262.0,225.6842499,1.8,4.0,225.3,10 / 21,1374,2017-05-30 21:24:05:666
-0.453,-0.057,9.632,-0.368,-0.054,9.807,0.136,0.082,-0.109,-18.1,-18.8,-37.3,134.7,0.3,2.1,54.74,39.35338,16.2197,262.0,225.6842499,1.8,4.0,225.3,10 / 21,1385,2017-05-30 21:24:05:677
-0.29,0.02,9.744,-0.368,-0.054,9.807,-0.082,0.0,-0.177,-18.1,-19.0,-37.0,134.7,0.3,2.1,54.74,39.35338,16.2197,262.0,225.6842499,1.8,4.0,225.3,10 / 21,1395,2017-05-30 21:24:05:687
-0.29,0.02,9.744,-0.368,-0.054,9.807,-0.027,0.082,-0.204,-18.3,-19.0,-37.1,134.7,0.3,2.1,54.74,39.35338,16.2197,262.0,225.6842499,1.8,4.0,225.3,10 / 21,1405,2017-05-30 21:24:05:697
-0.319,0.039,9.847,-0.368,-0.054,9.807,-0.054,0.014,-0.286,-18.2,-19.2,-36.7,134.7,0.3,2.1,54.74,39.35338,16.2197,262.0,225.6842499,1.8,4.0,225.3,10 / 21,1414,2017-05-30 21:24:05:706
-0.319,0.039,9.847,-0.368,-0.054,9.807,-0.054,0.014,-0.286,-18.2,-19.2,-36.7,134.7,0.3,2.1,54.74,39.35338,16.2197,262.0,225.6842499,1.8,4.0,225.3,10 / 21,1424,2017-05-30 21:24:05:716
-0.434,-0.104,9.417,-0.368,-0.054,9.807,0.054,0.082,0.041,-18.2,-19.2,-36.4,134.7,0.3,2.1,54.74,39.35338,16.2197,262.0,225.6842499,1.8,4.0,225.3,10 / 21,1434,2017-05-30 21:24:05:726
-0.3,0.011,9.716,-0.381,-0.041,9.807,-0.041,-0.054,-0.395,-18.2,-19.4,-36.4,134.8,0.3,2.1,54.74,39.35338,16.2197,262.0,225.6842499,1.8,4.0,225.3,12 / 21,1453,2017-05-30 21:24:05:745
-0.3,0.011,9.716,-0.381,-0.041,9.807,-0.041,-0.054,-0.395,-18.2,-19.4,-36.4,134.8,0.3,2.1,54.74,39.35338,16.2197,262.0,225.6842499,1.8,4.0,225.3,12 / 21,1454,2017-05-30 21:24:05:746
-0.376,-0.037,9.632,-0.368,-0.054,9.807,0.068,0.054,-0.095,-18.2,-19.4,-36.6,134.8,0.3,2.1,54.74,39.35338,16.2197,262.0,225.6842499,0.0,4.0,,12 / 21,1465,2017-05-30 21:24:05:757
-0.252,0.02,9.697,-0.381,-0.041,9.807,0.027,0.0,-0.3,-18.1,-19.4,-36.5,134.8,0.3,2.1,54.74,39.35338,16.2197,262.0,225.6842499,0.0,4.0,,12 / 21,1475,2017-05-30 21:24:05:767
-0.252,0.02,9.697,-0.381,-0.041,9.807,0.027,0.0,-0.3,-18.1,-19.4,-36.5,134.8,0.3,2.1,54.74,39.35338,16.2197,262.0,225.6842499,0.0,4.0,,12 / 21,1484,2017-05-30 21:24:05:776
-0.252,0.02,9.697,-0.381,-0.041,9.807,0.027,0.0,-0.3,-18.1,-19.4,-36.5,134.8,0.3,2.1,54.74,39.35338,16.2197,262.0,225.6842499,0.0,4.0,,12 / 21,1494,2017-05-30 21:24:05:786
-0.252,0.02,9.697,-0.381,-0.041,9.807,0.027,0.0,-0.3,-18.1,-19.4,-36.5,134.8,0.3,2.1,54.74,39.35338,16.2197,262.0,225.6842499,0.0,4.0,,12 / 21,1504,2017-05-30 21:24:05:796
-0.405,-0.066,9.772,-0.381,-0.041,9.807,0.136,0.054,-0.109,-18.0,-19.2,-36.1,134.6,0.2,2.2,54.74,39.35338,16.2197,262.0,225.6842499,0.0,4.0,,12 / 21,1514,2017-05-30 21:24:05:806
-0.396,-0.114,9.557,-0.381,-0.041,9.807,-0.014,-0.014,-0.041,-17.9,-19.3,-36.1,134.6,0.2,2.2,54.74,39.35338,16.2197,262.0,225.6842499,0.0,4.0,,12 / 21,1525,2017-05-30 21:24:05:817
-0.396,-0.114,9.557,-0.381,-0.041,9.807,-0.014,-0.014,-0.041,-17.9,-19.3,-36.1,134.6,0.2,2.2,54.74,39.35338,16.2197,262.0,225.6842499,0.0,4.0,,12 / 21,1534,2017-05-30 21:24:05:826
-0.223,0.049,9.753,-0.381,-0.041,9.807,-0.014,-0.068,-0.245,-17.5,-19.1,-36.1,134.6,0.2,2.2,54.74,39.35338,16.2197,262.0,225.6842499,0.0,4.0,,12 / 21,1544,2017-05-30 21:24:05:836
-0.223,0.049,9.753,-0.381,-0.041,9.807,-0.014,-0.068,-0.245,-17.5,-19.1,-36.1,134.6,0.2,2.2,54.74,39.35338,16.2197,262.0,225.6842499,0.0,4.0,,12 / 21,1554,2017-05-30 21:24:05:846
-0.386,-0.066,9.539,-0.368,-0.041,9.807,0.15,0.082,-0.054,-17.8,-19.0,-35.9,134.6,0.2,2.2,54.74,39.35338,16.2197,262.0,225.6842499,0.0,4.0,,12 / 21,1564,2017-05-30 21:24:05:856
-0.204,0.049,9.753,-0.368,-0.041,9.807,-0.041,-0.082,-0.3,-17.7,-19.0,-35.9,134.6,0.2,2.2,54.74,39.35338,16.2197,262.0,225.6842499,0.0,4.0,,12 / 21,1574,2017-05-30 21:24:05:866
-0.204,0.049,9.753,-0.368,-0.041,9.807,-0.041,-0.082,-0.3,-17.7,-19.0,-35.9,134.6,0.2,2.2,54.74,39.35338,16.2197,262.0,225.6842499,0.0,4.0,,12 / 21,1584,2017-05-30 21:24:05:876
-0.472,-0.047,9.604,-0.368,-0.054,9.807,0.177,0.095,-0.054,-17.6,-19.1,-36.3,134.6,0.2,2.2,54.74,39.35338,16.2197,262.0,225.6842499,0.0,4.0,,12 / 21,1595,2017-05-30 21:24:05:887
-0.472,-0.047,9.604,-0.368,-0.054,9.807,0.177,0.095,-0.054,-17.6,-19.1,-36.3,134.6,0.2,2.2,54.74,39.35338,16.2197,262.0,225.6842499,0.0,4.0,,12 / 21,1604,2017-05-30 21:24:05:896
-0.261,0.02,9.585,-0.368,-0.054,9.807,-0.095,0.014,-0.204,-17.6,-18.9,-36.1,134.8,0.3,2.1,54.21,39.35338,16.2197,262.0,225.6842499,0.0,4.0,,12 / 21,1614,2017-05-30 21:24:05:906
-0.482,-0.018,9.66,-0.368,-0.054,9.807,0.109,0.068,-0.218,-18.0,-19.0,-36.1,134.8,0.3,2.1,54.21,39.35338,16.2197,262.0,225.6842499,0.0,4.0,,12 / 21,1625,2017-05-30 21:24:05:917
-0.482,-0.018,9.66,-0.368,-0.054,9.807,0.109,0.068,-0.218,-18.0,-19.0,-36.1,134.8,0.3,2.1,54.21,39.35338,16.2197,262.0,225.6842499,0.0,4.0,,12 / 21,1634,2017-05-30 21:24:05:926
-0.472,-0.076,9.585,-0.368,-0.054,9.807,0.123,0.095,-0.109,-18.0,-19.3,-36.1,134.8,0.3,2.1,54.21,39.35338,16.2197,262.0,225.6842499,0.0,4.0,,12 / 21,1645,2017-05-30 21:24:05:937
-0.472,-0.076,9.585,-0.368,-0.054,9.807,0.123,0.095,-0.109,-18.0,-19.3,-36.1,134.8,0.3,2.1,54.21,39.35338,16.2197,262.0,225.6842499,0.0,4.0,,12 / 21,1654,2017-05-30 21:24:05:946
-0.242,0.039,9.819,-0.368,-0.054,9.807,-0.095,-0.014,-0.218,-18.0,-19.3,-36.2,134.8,0.3,2.1,54.21,39.35338,16.2197,262.0,225.6842499,0.0,4.0,,12 / 21,1665,2017-05-30 21:24:05:957
-0.242,0.039,9.819,-0.368,-0.054,9.807,-0.095,-0.014,-0.218,-18.0,-19.3,-36.2,134.8,0.3,2.1,54.21,39.35338,16.2197,262.0,225.6842499,0.0,4.0,,12 / 21,1674,2017-05-30 21:24:05:966
-0.472,-0.037,9.632,-0.368,-0.054,9.807,0.136,0.082,0.014,-17.8,-19.0,-36.6,134.7,0.3,2.1,54.21,39.35338,16.2197,262.0,225.6842499,0.0,4.0,,12 / 21,1684,2017-05-30 21:24:05:976
-0.472,-0.037,9.632,-0.368,-0.054,9.807,0.136,0.082,0.014,-17.8,-19.0,-36.6,134.7,0.3,2.1,54.21,39.35338,16.2197,262.0,225.6842499,0.0,4.0,,12 / 21,1695,2017-05-30 21:24:05:987
-0.348,-0.028,9.725,-0.368,-0.054,9.807,-0.095,0.027,-0.177,-18.0,-19.0,-37.3,134.7,0.3,2.1,54.21,39.35338,16.2197,262.0,225.6842499,0.0,4.0,,12 / 21,1705,2017-05-30 21:24:05:997
-0.348,-0.028,9.725,-0.368,-0.054,9.807,-0.095,0.027,-0.177,-18.0,-19.0,-37.3,134.7,0.3,2.1,54.21,39.35338,16.2197,262.0,225.6842499,0.0,4.0,,12 / 21,1715,2017-05-30 21:24:06:007
-0.281,0.02,9.725,-0.368,-0.054,9.807,0.027,0.027,-0.082,-18.1,-18.7,-37.5,134.7,0.3,2.1,54.21,39.35338,16.2197,262.0,225.6842499,0.0,4.0,,12 / 21,1724,2017-05-30 21:24:06:016
-0.281,0.02,9.725,-0.368,-0.054,9.807,0.027,0.027,-0.082,-18.1,-18.7,-37.5,134.7,0.3,2.1,54.21,39.35338,16.2197,262.0,225.6842499,0.0,4.0,,12 / 21,1734,2017-05-30 21:24:06:026
-0.472,-0.047,9.623,-0.368,-0.054,9.807,0.095,0.068,-0.082,-17.8,-18.7,-38.2,134.7,0.3,2.1,54.21,39.35338,16.2197,262.0,225.6842499,0.0,4.0,,12 / 21,1745,2017-05-30 21:24:06:037
-0.472,-0.047,9.623,-0.368,-0.054,9.807,0.095,0.068,-0.082,-17.8,-18.7,-38.2,134.7,0.3,2.1,54.21,39.35338,16.2197,262.0,225.6842499,0.0,4.0,,12 / 21,1755,2017-05-30 21:24:06:047
-0.367,-0.066,9.595,-0.368,-0.054,9.807,-0.095,0.014,-0.191,-18.0,-18.7,-38.6,134.6,0.3,2.1,54.21,39.35338,16.2197,262.0,225.6842499,0.0,4.0,,12 / 21,1765,2017-05-30 21:24:06:057
-0.443,-0.057,9.482,-0.368,-0.054,9.807,0.054,0.041,-0.054,-18.0,-18.8,-38.6,134.6,0.3,2.1,54.21,39.35338,16.2197,262.0,225.6842499,0.0,4.0,,12 / 21,1774,2017-05-30 21:24:06:066
-0.443,-0.057,9.482,-0.368,-0.054,9.807,0.054,0.041,-0.054,-18.0,-18.8,-38.6,134.6,0.3,2.1,54.21,39.35338,16.2197,262.0,225.6842499,0.0,4.0,,12 / 21,1784,2017-05-30 21:24:06:076
-0.443,-0.057,9.482,-0.368,-0.054,9.807,0.054,0.041,-0.054,-18.0,-18.8,-38.6,134.6,0.3,2.1,54.21,39.35338,16.2197,262.0,225.6842499,0.0,4.0,,12 / 21,1795,2017-05-30 21:24:06:087
-0.443,-0.104,9.539,-0.354,-0.054,9.807,0.054,0.054,0.014,-17.9,-18.8,-38.8,134.6,0.3,2.1,54.21,39.35338,16.2197,262.0,225.6842499,0.0,4.0,,12 / 21,1805,2017-05-30 21:24:06:097
-0.443,-0.104,9.539,-0.354,-0.054,9.807,0.054,0.054,0.014,-17.9,-18.8,-38.8,134.6,0.3,2.1,54.21,39.35338,16.2197,262.0,225.6842499,0.0,4.0,,12 / 21,1815,2017-05-30 21:24:06:107
-0.376,-0.028,9.707,-0.354,-0.068,9.807,-0.082,-0.027,-0.272,-18.2,-18.9,-38.5,134.6,0.3,2.1,54.21,39.35338,16.2197,262.0,225.6842499,0.0,4.0,,12 / 21,1825,2017-05-30 21:24:06:117
-0.376,-0.028,9.707,-0.354,-0.068,9.807,-0.082,-0.027,-0.272,-18.2,-18.9,-38.5,134.6,0.3,2.1,54.21,39.35338,16.2197,262.0,225.6842499,0.0,4.0,,12 / 21,1835,2017-05-30 21:24:06:127
-0.539,-0.057,9.492,-0.354,-0.068,9.807,0.041,0.041,0.0,-18.2,-19.0,-38.5,134.9,0.4,2.1,54.21,39.35338,16.2197,262.0,225.6842499,0.0,4.0,,12 / 21,1845,2017-05-30 21:24:06:137
-0.424,-0.085,9.632,-0.354,-0.068,9.807,-0.177,0.014,-0.313,-18.2,-19.3,-37.8,134.9,0.4,2.1,54.21,39.35338,16.2197,262.0,225.6842499,0.0,4.0,,12 / 21,1855,2017-05-30 21:24:06:147
-0.424,-0.085,9.632,-0.354,-0.068,9.807,-0.177,0.014,-0.313,-18.2,-19.3,-37.8,134.9,0.4,2.1,54.21,39.35338,16.2197,262.0,225.6842499,0.0,4.0,,12 / 21,1865,2017-05-30 21:24:06:157
-0.3,0.02,9.894,-0.354,-0.068,9.807,-0.068,-0.014,-0.177,-17.9,-19.2,-37.5,134.9,0.4,2.1,54.21,39.35338,16.2197,262.0,225.6842499,0.0,4.0,,12 / 21,1874,2017-05-30 21:24:06:166
-0.424,-0.085,9.716,-0.354,-0.068,9.807,-0.082,0.027,-0.191,-17.8,-19.4,-37.1,134.9,0.4,2.1,54.21,39.35338,16.2197,262.0,225.6842499,0.0,4.0,,12 / 21,1884,2017-05-30 21:24:06:176
-0.424,-0.085,9.716,-0.354,-0.068,9.807,-0.082,0.027,-0.191,-17.8,-19.4,-37.1,134.9,0.4,2.1,54.21,39.35338,16.2197,262.0,225.6842499,0.0,4.0,,12 / 21,1894,2017-05-30 21:24:06:186
-0.29,-0.037,9.837,-0.354,-0.068,9.807,-0.068,-0.014,-0.095,-17.8,-19.4,-37.4,134.9,0.4,2.1,54.21,39.35338,16.2197,262.0,225.6842499,0.0,4.0,,12 / 21,1905,2017-05-30 21:24:06:197
-0.29,-0.037,9.837,-0.354,-0.068,9.807,-0.068,-0.014,-0.095,-17.8,-19.4,-37.4,134.9,0.4,2.1,54.21,39.35338,16.2197,262.0,225.6842499,0.0,4.0,,12 / 21,1915,2017-05-30 21:24:06:207
-0.29,-0.037,9.837,-0.354,-0.068,9.807,0.027,0.0,-0.095,-17.6,-19.0,-37.9,134.9,0.4,2.1,54.21,39.35338,16.2197,262.0,225.6842499,0.0,4.0,,12 / 21,1926,2017-05-30 21:24:06:218
-0.29,0.011,9.791,-0.354,-0.068,9.807,0.027,0.0,-0.095,-17.6,-19.0,-37.9,134.9,0.4,2.1,50.68,39.35338,16.2197,262.0,225.6842499,0.0,4.0,,12 / 21,1935,2017-05-30 21:24:06:227
-0.29,0.011,9.791,-0.354,-0.068,9.807,0.027,0.0,-0.095,-17.6,-19.0,-37.9,134.9,0.4,2.1,50.68,39.35338,16.2197,262.0,225.6842499,0.0,4.0,,12 / 21,1945,2017-05-30 21:24:06:237
-0.453,-0.047,9.576,-0.354,-0.068,9.807,0.068,0.068,-0.014,-17.9,-19.0,-38.6,134.9,0.4,2.1,50.68,39.35338,16.2197,262.0,225.6842499,0.0,4.0,,12 / 21,1955,2017-05-30 21:24:06:247
-0.242,0.011,9.688,-0.381,-0.027,9.807,-0.068,-0.014,-0.232,-18.1,-19.0,-38.7,134.8,0.4,2.1,50.68,39.35338,16.2197,262.0,225.6842499,0.0,4.0,,12 / 21,1965,2017-05-30 21:24:06:257
-0.242,0.011,9.688,-0.381,-0.027,9.807,-0.068,-0.014,-0.232,-18.1,-19.0,-38.7,134.8,0.4,2.1,50.68,39.35338,16.2197,262.0,225.6842499,0.0,4.0,,12 / 21,1975,2017-05-30 21:24:06:267
-0.482,-0.076,9.623,-0.381,-0.027,9.807,0.15,0.027,-0.123,-18.0,-19.0,-38.6,134.8,0.4,2.1,50.68,39.35338,16.2197,262.0,225.6842499,0.0,4.0,,12 / 21,1985,2017-05-30 21:24:06:277
-0.482,-0.076,9.623,-0.381,-0.027,9.807,0.15,0.027,-0.123,-18.0,-19.0,-38.6,134.8,0.4,2.1,50.68,39.35338,16.2197,262.0,225.6842499,0.0,4.0,,12 / 21,1994,2017-05-30 21:24:06:286
-0.396,-0.095,9.641,-0.381,-0.027,9.807,-0.095,-0.041,-0.191,-18.3,-19.3,-38.6,134.4,0.2,2.2,50.68,39.35338,16.2197,262.0,225.6842499,0.0,4.0,,12 / 21,2006,2017-05-30 21:24:06:298
-0.29,0.058,9.781,-0.381,-0.041,9.807,-0.014,-0.041,-0.163,-18.0,-19.3,-38.5,134.4,0.2,2.2,50.68,39.35338,16.2197,262.0,225.6842499,0.0,4.0,,12 / 21,2014,2017-05-30 21:24:06:306
-0.29,0.058,9.781,-0.381,-0.041,9.807,-0.014,-0.041,-0.163,-18.0,-19.3,-38.5,134.4,0.2,2.2,50.68,39.35338,16.2197,262.0,225.6842499,0.0,4.0,,12 / 21,2024,2017-05-30 21:24:06:316
-0.328,-0.028,9.613,-0.381,-0.041,9.807,0.095,0.095,-0.027,-17.9,-19.3,-38.1,134.5,0.2,2.2,50.68,39.35338,16.2197,262.0,225.6842499,0.0,4.0,,12 / 21,2035,2017-05-30 21:24:06:327
-0.281,0.068,9.716,-0.381,-0.041,9.807,0.095,0.095,-0.027,-17.9,-19.3,-38.1,134.5,0.2,2.2,50.68,39.35338,16.2197,262.0,225.6842499,0.0,4.0,,12 / 21,2045,2017-05-30 21:24:06:337
-0.281,0.068,9.716,-0.381,-0.041,9.807,-0.041,0.014,-0.354,-17.9,-19.2,-38.0,134.5,0.2,2.2,50.68,39.35338,16.2197,262.0,225.6842499,0.0,4.0,,12 / 21,2054,2017-05-30 21:24:06:346
-0.463,-0.037,9.548,-0.381,-0.041,9.807,-0.041,0.014,-0.354,-17.9,-19.2,-38.0,134.5,0.2,2.2,50.68,39.35338,16.2197,262.0,225.6842499,0.0,4.0,,12 / 21,2065,2017-05-30 21:24:06:357
-0.463,-0.037,9.548,-0.381,-0.041,9.807,-0.041,0.014,-0.354,-17.9,-19.2,-38.0,134.5,0.2,2.2,50.68,39.35338,16.2197,262.0,225.6842499,0.0,4.0,,12 / 21,2074,2017-05-30 21:24:06:366
-0.242,0.011,9.735,-0.381,-0.027,9.807,0.054,0.027,-0.068,-18.0,-19.3,-37.7,134.5,0.2,2.2,50.68,39.35338,16.2197,262.0,225.6842499,0.0,4.0,,12 / 21,2085,2017-05-30 21:24:06:377
-0.242,0.011,9.735,-0.381,-0.027,9.807,0.054,0.027,-0.068,-18.0,-19.3,-37.7,134.5,0.2,2.2,50.68,39.35338,16.2197,262.0,225.6842499,0.0,4.0,,12 / 21,2094,2017-05-30 21:24:06:386
-0.463,-0.037,9.557,-0.381,-0.027,9.807,0.15,0.027,-0.068,-18.2,-19.4,-37.3,134.5,0.2,2.2,50.68,39.35338,16.2197,262.0,225.6842499,0.0,4.0,,12 / 21,2105,2017-05-30 21:24:06:397
-0.415,-0.037,9.66,-0.381,-0.027,9.807,-0.068,0.0,-0.245,-18.3,-19.4,-37.1,134.5,0.2,2.2,50.68,39.35338,16.2197,262.0,225.6842499,0.0,4.0,,12 / 21,2115,2017-05-30 21:24:06:407
-0.415,-0.037,9.66,-0.381,-0.027,9.807,-0.068,0.0,-0.245,-18.3,-19.4,-37.1,134.5,0.2,2.2,50.68,39.35338,16.2197,262.0,225.6842499,0.0,4.0,,12 / 21,2124,2017-05-30 21:24:06:416
-0.434,-0.047,9.501,-0.381,-0.027,9.807,-0.027,0.0,-0.15,-18.3,-19.6,-36.8,134.5,0.2,2.2,50.68,39.35338,16.2197,262.0,225.6842499,0.0,4.0,,12 / 21,2134,2017-05-30 21:24:06:426
-0.3,0.02,9.669,-0.381,-0.027,9.807,-0.027,0.0,-0.15,-18.3,-19.6,-36.8,134.5,0.2,2.2,50.68,39.35338,16.2197,262.0,225.6842499,0.0,4.0,,12 / 21,2144,2017-05-30 21:24:06:436
-0.3,0.02,9.669,-0.368,-0.027,9.807,0.068,0.068,0.027,-18.2,-19.2,-36.7,134.5,0.2,2.2,50.68,39.35338,16.2197,262.0,225.6842499,0.0,4.0,,12 / 21,2155,2017-05-30 21:24:06:447
-0.29,-0.018,9.781,-0.368,-0.027,9.807,0.068,0.041,-0.136,-18.1,-19.4,-36.7,134.5,0.2,2.2,50.68,39.35338,16.2197,262.0,225.6842499,0.0,4.0,,12 / 21,2164,2017-05-30 21:24:06:456
-0.29,-0.018,9.781,-0.368,-0.027,9.807,0.068,0.041,-0.136,-18.1,-19.4,-36.7,134.5,0.2,2.2,50.68,39.35338,16.2197,262.0,225.6842499,0.0,4.0,,12 / 21,2174,2017-05-30 21:24:06:466
-0.252,0.03,9.735,-0.368,-0.027,9.807,0.082,0.014,-0.027,-17.8,-19.3,-36.5,134.5,0.2,2.2,50.68,39.35338,16.2197,262.0,225.6842499,0.0,4.0,,12 / 21,2185,2017-05-30 21:24:06:477
-0.271,-0.028,9.651,-0.368,-0.027,9.807,0.082,0.014,-0.027,-17.8,-19.3,-36.5,134.5,0.2,2.2,50.68,39.35338,16.2197,262.0,225.6842499,0.0,4.0,,12 / 21,2195,2017-05-30 21:24:06:487
-0.271,-0.028,9.651,-0.368,-0.027,9.807,0.068,-0.027,-0.3,-17.8,-19.4,-36.8,134.6,0.2,2.1,50.68,39.35338,16.2197,262.0,225.6842499,0.0,4.0,,12 / 21,2205,2017-05-30 21:24:06:497
-0.348,-0.018,9.697,-0.368,-0.027,9.807,0.109,0.0,-0.15,-17.8,-19.4,-36.8,134.6,0.2,2.1,50.68,39.35338,16.2197,262.0,225.6842499,0.0,4.0,,12 / 21,2215,2017-05-30 21:24:06:507
-0.348,-0.018,9.697,-0.368,-0.027,9.807,0.109,0.0,-0.15,-17.8,-19.4,-36.8,134.6,0.2,2.1,50.68,39.35338,16.2197,262.0,225.6842499,0.0,4.0,,12 / 21,2225,2017-05-30 21:24:06:517
-0.357,0.001,9.809,-0.368,-0.027,9.807,0.027,0.014,-0.109,-17.8,-19.4,-36.5,134.6,0.2,2.1,50.68,39.35338,16.2197,262.0,225.6842499,0.0,4.0,,12 / 21,2235,2017-05-30 21:24:06:527
-0.376,-0.095,9.539,-0.368,-0.027,9.807,0.014,0.027,0.0,-18.0,-19.5,-36.4,134.6,0.2,2.1,50.43,39.35338,16.2197,262.0,225.6842499,0.0,4.0,,12 / 21,2245,2017-05-30 21:24:06:537
-0.376,-0.095,9.539,-0.368,-0.027,9.807,0.014,0.027,0.0,-18.0,-19.5,-36.4,134.6,0.2,2.1,50.43,39.35338,16.2197,262.0,225.6842499,0.0,4.0,,12 / 21,2254,2017-05-30 21:24:06:546
-0.261,-0.076,9.856,-0.368,-0.027,9.807,0.0,-0.054,-0.272,-18.2,-19.7,-36.8,134.6,0.2,2.1,50.43,39.35338,16.2197,262.0,225.6842499,0.0,4.0,,12 / 21,2264,2017-05-30 21:24:06:556
-0.261,-0.076,9.856,-0.368,-0.027,9.807,0.0,-0.054,-0.272,-18.2,-19.7,-36.8,134.6,0.2,2.1,50.43,39.35338,16.2197,262.0,225.6842499,0.0,4.0,,12 / 21,2274,2017-05-30 21:24:06:566
-0.338,-0.057,9.454,-0.368,-0.027,9.807,0.109,-0.041,0.054,-18.1,-19.4,-36.7,134.6,0.2,2.1,50.43,39.35338,16.2197,262.0,225.6842499,0.0,4.0,,12 / 21,2284,2017-05-30 21:24:06:576
-0.338,-0.057,9.454,-0.368,-0.027,9.807,0.109,-0.041,0.054,-18.1,-19.4,-36.7,134.6,0.2,2.1,50.43,39.35338,16.2197,262.0,225.6842499,0.0,4.0,,12 / 21,2295,2017-05-30 21:24:06:587
-0.079,0.049,9.8,-0.368,-0.027,9.807,0.041,-0.027,-0.354,-17.9,-19.6,-37.1,136.1,0.2,2.1,50.43,39.35338,16.2197,262.0,225.6842499,0.0,4.0,,12 / 21,2305,2017-05-30 21:24:06:597
-0.204,-0.037,9.492,-0.368,-0.027,9.807,0.3,0.068,0.0,-17.8,-19.5,-37.7,136.1,0.2,2.1,50.43,39.35338,16.2197,262.0,225.6842499,0.0,4.0,,12 / 21,2314,2017-05-30 21:24:06:606
-0.204,-0.037,9.492,-0.368,-0.027,9.807,0.3,0.068,0.0,-17.8,-19.5,-37.7,136.1,0.2,2.1,50.43,39.35338,16.2197,262.0,225.6842499,0.0,4.0,,12 / 21,2325,2017-05-30 21:24:06:617
-0.099,0.058,9.735,-0.368,-0.027,9.807,0.177,0.0,-0.313,-17.8,-19.4,-37.7,136.1,0.2,2.1,50.43,39.35338,16.2197,262.0,225.6842499,0.0,4.0,,12 / 21,2335,2017-05-30 21:24:06:627
-0.099,0.058,9.735,-0.368,-0.027,9.807,0.177,0.0,-0.313,-17.8,-19.4,-37.7,136.1,0.2,2.1,50.43,39.35338,16.2197,262.0,225.6842499,0.0,4.0,,12 / 21,2345,2017-05-30 21:24:06:637
-0.147,-0.009,9.707,-0.354,-0.027,9.807,0.259,0.082,-0.068,-17.8,-19.3,-37.4,134.6,0.2,2.1,50.43,39.35338,16.2197,262.0,225.6842499,0.0,4.0,,12 / 21,2355,2017-05-30 21:24:06:647
-0.214,-0.047,9.809,-0.313,-0.014,9.807,0.177,0.014,-0.095,-17.8,-19.3,-37.7,134.6,0.2,2.1,50.43,39.35338,16.2197,262.0,225.6842499,0.0,4.0,,12 / 21,2365,2017-05-30 21:24:06:657
-0.214,-0.047,9.809,-0.313,-0.014,9.807,0.177,0.014,-0.095,-17.8,-19.3,-37.7,134.6,0.2,2.1,50.43,39.35338,16.2197,262.0,225.6842499,0.0,4.0,,12 / 21,2374,2017-05-30 21:24:06:666
-0.108,0.011,9.604,-0.3,-0.014,9.807,0.3,0.054,-0.218,-18.1,-19.5,-37.0,134.8,0.1,1.8,50.43,39.35338,16.2197,262.0,225.6842499,0.0,4.0,,12 / 21,2384,2017-05-30 21:24:06:676
-0.012,0.116,9.856,-0.3,-0.014,9.807,0.3,0.054,-0.218,-18.1,-19.5,-37.0,134.8,0.1,1.8,50.43,39.35338,16.2197,262.0,225.6842499,0.0,4.0,,12 / 21,2394,2017-05-30 21:24:06:686
-0.012,0.116,9.856,-0.272,-0.014,9.807,0.109,0.0,-0.15,-18.2,-19.7,-37.0,134.8,0.1,1.8,50.43,39.35338,16.2197,262.0,225.6842499,0.0,4.0,,12 / 21,2404,2017-05-30 21:24:06:696
-0.185,-0.018,9.557,-0.272,-0.014,9.807,0.109,0.0,-0.15,-18.2,-19.7,-37.0,134.8,0.1,1.8,50.43,39.35338,16.2197,262.0,225.6842499,0.0,4.0,,12 / 21,2415,2017-05-30 21:24:06:707
-0.185,-0.018,9.557,-0.272,-0.014,9.807,0.109,0.0,-0.15,-18.2,-19.7,-37.0,134.8,0.1,1.8,50.43,39.35338,16.2197,262.0,225.6842499,0.0,4.0,,12 / 21,2424,2017-05-30 21:24:06:716
0.035,0.049,9.8,-0.272,-0.014,9.807,0.095,0.0,-0.245,-18.1,-19.7,-37.0,136.5,0.1,1.6,50.43,39.35338,16.2197,262.0,225.6842499,0.0,4.0,,12 / 21,2434,2017-05-30 21:24:06:726
0.035,0.049,9.8,-0.272,-0.014,9.807,0.095,0.0,-0.245,-18.1,-19.7,-37.0,136.5,0.1,1.6,50.43,39.35338,16.2197,262.0,225.6842499,0.0,4.0,,12 / 21,2444,2017-05-30 21:24:06:736
-0.041,-0.009,9.585,-0.272,-0.014,9.807,0.3,0.054,0.0,-18.1,-19.7,-37.0,136.5,0.1,1.6,50.43,39.35336,16.21969,261.0,225.6842499,2.9,4.0,221.3,12 / 21,2455,2017-05-30 21:24:06:747
-0.041,-0.009,9.585,-0.272,-0.014,9.807,0.3,0.054,0.0,-18.1,-19.7,-37.0,136.5,0.1,1.6,50.43,39.35336,16.21969,261.0,225.6842499,2.9,4.0,221.3,12 / 21,2464,2017-05-30 21:24:06:756
-0.041,-0.009,9.585,-0.272,-0.014,9.807,0.3,0.054,0.0,-18.1,-19.7,-37.0,136.5,0.1,1.6,50.43,39.35336,16.21969,261.0,225.6842499,2.9,4.0,221.3,12 / 21,2475,2017-05-30 21:24:06:767
-0.099,-0.047,9.52,-0.272,-0.014,9.807,0.327,-0.041,0.0,-17.9,-19.3,-37.1,135.0,0.1,1.6,50.43,39.35336,16.21969,261.0,225.6842499,2.9,4.0,221.3,12 / 21,2485,2017-05-30 21:24:06:777
0.122,0.078,9.847,-0.232,-0.014,9.807,0.136,-0.027,-0.286,-18.2,-19.3,-37.1,135.0,0.1,1.6,50.43,39.35336,16.21969,261.0,225.6842499,2.9,4.0,221.3,12 / 21,2495,2017-05-30 21:24:06:787
0.122,0.078,9.847,-0.232,-0.014,9.807,0.136,-0.027,-0.286,-18.2,-19.3,-37.1,135.0,0.1,1.6,50.43,39.35336,16.21969,261.0,225.6842499,2.9,4.0,221.3,12 / 21,2504,2017-05-30 21:24:06:796
0.141,-0.076,9.697,-0.204,-0.014,9.807,0.313,0.082,0.041,-18.4,-19.6,-37.1,135.0,0.1,1.6,50.43,39.35336,16.21969,261.0,225.6842499,2.9,4.0,221.3,12 / 21,2514,2017-05-30 21:24:06:806
0.141,-0.076,9.697,-0.204,-0.014,9.807,0.313,0.082,0.041,-18.4,-19.6,-37.1,135.0,0.1,1.6,50.43,39.35336,16.21969,261.0,225.6842499,2.9,4.0,221.3,12 / 21,2524,2017-05-30 21:24:06:816
0.179,0.011,9.875,-0.177,0.0,9.807,0.109,-0.027,-0.218,-18.4,-19.6,-36.7,136.9,0.1,1.2,50.43,39.35336,16.21969,261.0,225.6842499,2.9,4.0,221.3,12 / 21,2535,2017-05-30 21:24:06:827
0.122,-0.047,9.576,-0.123,0.0,9.807,0.3,0.0,0.068,-18.4,-19.8,-36.5,136.9,0.1,1.2,50.43,39.35336,16.21969,261.0,225.6842499,2.9,4.0,221.3,12 / 21,2544,2017-05-30 21:24:06:836
0.122,-0.047,9.576,-0.123,0.0,9.807,0.3,0.0,0.068,-18.4,-19.8,-36.5,136.9,0.1,1.2,50.43,39.35336,16.21969,261.0,225.6842499,2.9,4.0,221.3,12 / 21,2555,2017-05-30 21:24:06:847
0.122,0.087,9.697,-0.109,0.0,9.807,0.218,-0.041,-0.232,-18.4,-20.1,-36.4,137.3,0.0,0.7,51.97,39.35336,16.21969,261.0,225.6842499,2.9,4.0,221.3,12 / 21,2564,2017-05-30 21:24:06:856
0.122,0.087,9.697,-0.109,0.0,9.807,0.218,-0.041,-0.232,-18.4,-20.1,-36.4,137.3,0.0,0.7,51.97,39.35336,16.21969,261.0,225.6842499,2.9,4.0,221.3,12 / 21,2574,2017-05-30 21:24:06:866
0.074,-0.028,9.623,-0.109,0.0,9.807,0.381,0.027,0.0,-18.3,-20.3,-36.3,137.3,0.0,0.7,51.97,39.35336,16.21969,261.0,225.6842499,2.9,4.0,221.3,12 / 21,2584,2017-05-30 21:24:06:876
0.074,-0.028,9.623,-0.109,0.0,9.807,0.381,0.027,0.0,-18.3,-20.3,-36.3,137.3,0.0,0.7,51.97,39.35336,16.21969,261.0,225.6842499,2.9,4.0,221.3,12 / 21,2594,2017-05-30 21:24:06:886
0.198,0.097,9.884,-0.082,0.0,9.807,0.15,-0.027,-0.191,-18.2,-20.0,-36.5,137.4,0.0,0.6,51.97,39.35336,16.21969,261.0,225.6842499,2.9,4.0,221.3,12 / 21,2605,2017-05-30 21:24:06:897
0.294,0.02,9.716,-0.054,0.0,9.807,0.245,0.095,0.082,-18.2,-19.7,-37.0,137.4,0.0,0.6,51.97,39.35336,16.21969,261.0,225.6842499,2.9,4.0,221.3,12 / 21,2615,2017-05-30 21:24:06:907
0.294,0.02,9.716,-0.054,0.0,9.807,0.245,0.095,0.082,-18.2,-19.7,-37.0,137.4,0.0,0.6,51.97,39.35336,16.21969,261.0,225.6842499,2.9,4.0,221.3,12 / 21,2624,2017-05-30 21:24:06:916
0.093,0.106,9.8,-0.054,0.0,9.807,0.136,-0.014,-0.109,-18.2,-19.7,-37.4,137.4,0.0,0.6,51.97,39.35336,16.21969,261.0,225.6842499,2.9,4.0,221.3,12 / 21,2634,2017-05-30 21:24:06:926
0.179,-0.047,9.595,-0.014,0.0,9.807,0.095,0.095,0.0,-18.2,-19.6,-37.9,137.7,0.0,0.3,51.97,39.35336,16.21969,261.0,225.6842499,2.9,4.0,221.3,12 / 21,2644,2017-05-30 21:24:06:936
0.179,-0.047,9.595,-0.014,0.0,9.807,0.095,0.095,0.0,-18.2,-19.6,-37.9,137.7,0.0,0.3,51.97,39.35336,16.21969,261.0,225.6842499,2.9,4.0,221.3,12 / 21,2654,2017-05-30 21:24:06:946
0.026,0.097,9.669,-0.014,0.0,9.807,0.191,-0.041,-0.218,-17.6,-19.5,-37.9,137.7,0.0,0.3,51.97,39.35336,16.21969,261.0,225.6842499,2.9,4.0,221.3,12 / 21,2665,2017-05-30 21:24:06:957
0.026,0.097,9.669,-0.014,0.0,9.807,0.191,-0.041,-0.218,-17.6,-19.5,-37.9,137.7,0.0,0.3,51.97,39.35336,16.21969,261.0,225.6842499,2.9,4.0,221.3,12 / 21,2675,2017-05-30 21:24:06:967
-0.089,-0.057,9.669,0.014,0.0,9.807,0.0,0.095,-0.136,-17.2,-19.3,-37.7,138.1,0.0,0.1,51.97,39.35336,16.21969,261.0,225.6842499,2.9,4.0,221.3,12 / 21,2685,2017-05-30 21:24:06:977
0.275,0.049,10.118,0.041,0.0,9.807,-0.123,-0.054,-0.136,-16.7,-19.1,-37.2,138.1,0.0,0.1,51.97,39.35336,16.21969,261.0,225.6842499,2.9,4.0,221.3,12 / 21,2695,2017-05-30 21:24:06:987
0.275,0.049,10.118,0.041,0.0,9.807,-0.123,-0.054,-0.136,-16.7,-19.1,-37.2,138.1,0.0,0.1,51.97,39.35336,16.21969,261.0,225.6842499,2.9,4.0,221.3,12 / 21,2705,2017-05-30 21:24:06:997
-0.089,0.087,9.436,0.068,0.014,9.807,0.204,0.027,0.313,-16.7,-19.0,-36.7,138.1,0.0,0.1,51.97,39.35336,16.21969,261.0,225.6842499,2.9,4.0,221.3,12 / 21,2714,2017-05-30 21:24:07:006
-0.089,0.087,9.436,0.068,0.014,9.807,0.204,0.027,0.313,-16.7,-19.0,-36.7,138.1,0.0,0.1,51.97,39.35336,16.21969,261.0,225.6842499,2.9,4.0,221.3,12 / 21,2725,2017-05-30 21:24:07:017
-0.194,0.011,9.894,0.082,0.014,9.807,-0.163,0.068,-0.368,-16.8,-19.0,-36.7,138.5,-0.1,-0.4,51.97,39.35336,16.21969,261.0,225.6842499,2.9,4.0,221.3,12 / 21,2735,2017-05-30 21:24:07:027
-0.022,-0.171,10.024,0.095,0.014,9.807,-0.286,-0.014,0.082,-17.2,-18.8,-36.7,138.5,-0.1,-0.4,51.97,39.35336,16.21969,261.0,225.6842499,2.9,4.0,221.3,12 / 21,2744,2017-05-30 21:24:07:036
-0.022,-0.171,10.024,0.095,0.014,9.807,-0.286,-0.014,0.082,-17.2,-18.8,-36.7,138.5,-0.1,-0.4,51.97,39.35336,16.21969,261.0,225.6842499,2.9,4.0,221.3,12 / 21,2754,2017-05-30 21:24:07:046
-0.012,-0.152,9.987,0.095,0.014,9.807,-0.109,-0.177,0.218,-17.3,-19.2,-37.0,138.7,-0.1,-0.6,51.97,39.35336,16.21969,261.0,225.6842499,2.9,4.0,221.3,12 / 21,2764,2017-05-30 21:24:07:056
-0.012,-0.152,9.987,0.095,0.014,9.807,-0.109,-0.177,0.218,-17.3,-19.2,-37.0,138.7,-0.1,-0.6,51.97,39.35336,16.21969,261.0,225.6842499,2.9,4.0,221.3,12 / 21,2775,2017-05-30 21:24:07:067
0.351,0.116,9.342,0.095,0.014,9.807,0.341,0.245,-0.504,-17.8,-19.3,-37.1,138.7,-0.1,-0.6,51.97,39.35336,16.21969,261.0,225.6842499,2.9,4.0,221.3,12 / 21,2784,2017-05-30 21:24:07:076
0.351,0.116,9.342,0.095,0.014,9.807,0.341,0.245,-0.504,-17.8,-19.3,-37.1,138.7,-0.1,-0.6,51.97,39.35336,16.21969,261.0,225.6842499,2.9,4.0,221.3,12 / 21,2795,2017-05-30 21:24:07:087
0.39,0.058,9.333,0.109,0.014,9.807,0.232,0.095,-0.463,-17.5,-19.3,-36.8,137.0,-0.1,-0.6,51.97,39.35336,16.21969,261.0,225.6842499,2.9,4.0,221.3,12 / 21,2805,2017-05-30 21:24:07:097
0.39,0.058,9.333,0.109,0.014,9.807,0.232,0.095,-0.463,-17.5,-19.3,-36.8,137.0,-0.1,-0.6,51.97,39.35336,16.21969,261.0,225.6842499,2.9,4.0,221.3,12 / 21,2814,2017-05-30 21:24:07:106
0.629,0.164,9.361,0.123,0.014,9.807,0.259,0.041,-0.477,-17.7,-19.8,-37.0,137.0,-0.1,-0.6,51.97,39.35336,16.21969,261.0,225.6842499,2.9,4.0,221.3,12 / 21,2824,2017-05-30 21:24:07:116
0.677,0.26,9.51,0.123,0.014,9.807,0.259,0.041,-0.477,-17.7,-19.8,-37.0,137.0,-0.1,-0.6,51.97,39.35336,16.21969,261.0,225.6842499,2.9,4.0,221.3,12 / 21,2834,2017-05-30 21:24:07:126
0.677,0.26,9.51,0.136,0.014,9.807,-0.123,-0.204,0.014,-17.8,-20.0,-36.6,138.7,-0.1,-0.7,51.97,39.35336,16.21969,261.0,225.6842499,2.9,4.0,221.3,12 / 21,2844,2017-05-30 21:24:07:136
0.294,0.221,9.772,0.136,0.014,9.807,-0.123,-0.204,0.014,-17.8,-20.0,-36.6,138.7,-0.1,-0.7,51.97,39.35336,16.21969,261.0,225.6842499,2.9,4.0,221.3,12 / 21,2854,2017-05-30 21:24:07:146
0.294,0.221,9.772,0.163,0.027,9.807,-0.095,-0.286,-0.191,-17.8,-20.2,-36.8,138.7,-0.1,-0.7,51.97,39.35336,16.21969,261.0,225.6842499,2.9,4.0,221.3,12 / 21,2864,2017-05-30 21:24:07:156
0.294,0.221,9.772,0.163,0.027,9.807,-0.095,-0.286,-0.191,-17.8,-20.2,-36.8,138.7,-0.1,-0.7,51.97,39.35336,16.21969,261.0,225.6842499,2.9,4.0,221.3,12 / 21,2874,2017-05-30 21:24:07:166
0.16,-0.095,9.837,0.163,0.027,9.807,0.123,0.191,-0.041,-18.0,-20.3,-36.8,138.7,-0.1,-0.7,57.69,39.35336,16.21969,261.0,225.6842499,2.9,4.0,221.3,12 / 21,2885,2017-05-30 21:24:07:177
0.16,-0.277,9.623,0.163,0.014,9.807,-0.014,-0.095,0.027,-17.7,-19.7,-36.7,138.9,-0.2,-1.0,57.69,39.35336,16.21969,261.0,225.6842499,2.9,4.0,221.3,12 / 21,2895,2017-05-30 21:24:07:187
0.16,-0.277,9.623,0.163,0.014,9.807,-0.014,-0.095,0.027,-17.7,-19.7,-36.7,138.9,-0.2,-1.0,57.69,39.35336,16.21969,261.0,225.6842499,2.9,4.0,221.3,12 / 21,2905,2017-05-30 21:24:07:197
0.495,-0.085,9.445,0.191,0.027,9.807,-0.041,-0.3,-0.191,-17.9,-19.3,-36.9,138.9,-0.2,-1.0,57.69,39.35336,16.21969,261.0,225.6842499,2.9,4.0,221.3,12 / 21,2914,2017-05-30 21:24:07:206
0.495,-0.085,9.445,0.191,0.027,9.807,-0.041,-0.3,-0.191,-17.9,-19.3,-36.9,138.9,-0.2,-1.0,57.69,39.35336,16.21969,261.0,225.6842499,2.9,4.0,221.3,12 / 21,2925,2017-05-30 21:24:07:217
0.256,-0.009,9.931,0.191,0.027,9.807,0.395,0.191,-0.041,-17.6,-19.3,-36.8,138.9,-0.2,-1.0,57.69,39.35336,16.21969,261.0,225.6842499,2.9,4.0,221.3,12 / 21,2935,2017-05-30 21:24:07:227
0.256,-0.009,9.931,0.191,0.027,9.807,0.395,0.191,-0.041,-17.6,-19.3,-36.8,138.9,-0.2,-1.0,57.69,39.35336,16.21969,261.0,225.6842499,2.9,4.0,221.3,12 / 21,2945,2017-05-30 21:24:07:237
0.179,-0.238,9.669,0.218,0.027,9.807,0.027,-0.027,0.123,-17.6,-19.0,-37.3,137.6,-0.2,-1.1,57.69,39.35336,16.21969,261.0,225.6842499,2.9,4.0,221.3,12 / 21,2955,2017-05-30 21:24:07:247
0.457,-0.095,9.342,0.272,0.027,9.807,-0.095,-0.259,-0.136,-17.4,-19.0,-37.7,137.6,-0.2,-1.1,57.69,39.35336,16.21969,261.0,225.6842499,2.9,4.0,221.3,12 / 21,2964,2017-05-30 21:24:07:256
0.457,-0.095,9.342,0.272,0.027,9.807,-0.095,-0.259,-0.136,-17.4,-19.0,-37.7,137.6,-0.2,-1.1,57.69,39.35336,16.21969,261.0,225.6842499,2.9,4.0,221.3,12 / 21,2975,2017-05-30 21:24:07:267
0.38,0.068,9.912,0.286,0.027,9.807,0.409,0.204,0.095,-17.7,-19.1,-37.4,137.6,-0.2,-1.1,57.69,39.35336,16.21969,261.0,225.6842499,2.9,4.0,221.3,12 / 21,2985,2017-05-30 21:24:07:277
0.38,0.068,9.912,0.286,0.027,9.807,0.409,0.204,0.095,-17.7,-19.1,-37.4,137.6,-0.2,-1.1,57.69,39.35336,16.21969,261.0,225.6842499,2.9,4.0,221.3,12 / 21,2995,2017-05-30 21:24:07:287
0.304,-0.143,9.679,0.313,0.027,9.807,0.054,0.027,0.109,-17.5,-19.1,-37.5,139.9,-0.2,-1.7,57.69,39.35336,16.21969,261.0,225.6842499,2.9,4.0,221.3,12 / 21,3005,2017-05-30 21:24:07:297
0.6,-0.114,9.38,0.313,0.027,9.807,-0.014,-0.163,-0.123,-17.5,-19.1,-37.4,139.9,-0.2,-1.7,57.69,39.35336,16.21969,261.0,225.6842499,2.9,4.0,221.3,12 / 21,3015,2017-05-30 21:24:07:307
0.6,-0.114,9.38,0.313,0.027,9.807,-0.014,-0.163,-0.123,-17.5,-19.1,-37.4,139.9,-0.2,-1.7,57.69,39.35336,16.21969,261.0,225.6842499,2.9,4.0,221.3,12 / 21,3025,2017-05-30 21:24:07:317
0.505,0.164,10.108,0.313,0.027,9.807,0.613,0.3,0.027,-17.7,-19.1,-36.9,139.9,-0.2,-1.7,57.69,39.35336,16.21969,261.0,225.6842499,2.9,4.0,221.3,12 / 21,3035,2017-05-30 21:24:07:327
0.505,0.164,10.108,0.313,0.027,9.807,0.613,0.3,0.027,-17.7,-19.1,-36.9,139.9,-0.2,-1.7,57.69,39.35336,16.21969,261.0,225.6842499,2.9,4.0,221.3,12 / 21,3045,2017-05-30 21:24:07:337
0.304,-0.076,9.837,0.341,0.027,9.807,0.163,0.136,0.3,-17.8,-19.4,-36.7,138.3,-0.2,-1.8,57.69,39.35336,16.21969,261.0,225.6842499,2.9,4.0,221.3,12 / 21,3054,2017-05-30 21:24:07:346
0.38,-0.085,9.576,0.354,0.027,9.807,-0.041,-0.082,0.041,-17.8,-19.6,-37.0,138.3,-0.2,-1.8,57.69,39.35336,16.21969,261.0,225.6842499,2.9,4.0,221.3,12 / 21,3065,2017-05-30 21:24:07:357
0.38,-0.085,9.576,0.354,0.027,9.807,-0.041,-0.082,0.041,-17.8,-19.6,-37.0,138.3,-0.2,-1.8,57.69,39.35336,16.21969,261.0,225.6842499,2.9,4.0,221.3,12 / 21,3075,2017-05-30 21:24:07:367
1.06,0.547,9.8,0.354,0.027,9.807,0.79,0.409,-0.15,-17.8,-19.3,-36.8,138.3,-0.2,-1.8,57.69,39.35336,16.21969,261.0,225.6842499,2.9,4.0,221.3,12 / 21,3085,2017-05-30 21:24:07:377
1.06,0.547,9.8,0.354,0.027,9.807,0.79,0.409,-0.15,-17.8,-19.3,-36.8,138.3,-0.2,-1.8,57.69,39.35336,16.21969,261.0,225.6842499,2.9,4.0,221.3,12 / 21,3095,2017-05-30 21:24:07:387
0.658,0.307,9.94,0.409,0.027,9.807,0.64,0.518,0.0,-17.4,-19.4,-36.7,140.4,-0.2,-2.1,57.69,39.35336,16.21969,261.0,225.6842499,2.9,4.0,221.3,12 / 21,3105,2017-05-30 21:24:07:397
0.447,0.058,9.781,0.463,0.041,9.807,0.191,0.259,0.136,-17.2,-19.9,-37.1,140.4,-0.2,-2.1,57.69,39.35336,16.21969,261.0,225.6842499,2.9,4.0,221.3,12 / 21,3115,2017-05-30 21:24:07:407
0.447,0.058,9.781,0.463,0.041,9.807,0.191,0.259,0.136,-17.2,-19.9,-37.1,140.4,-0.2,-2.1,57.69,39.35336,16.21969,261.0,225.6842499,2.9,4.0,221.3,12 / 21,3125,2017-05-30 21:24:07:417
1.328,0.441,9.576,0.463,0.041,9.807,0.586,0.177,-0.191,-17.2,-19.5,-37.0,140.4,-0.2,-2.1,57.69,39.35336,16.21969,261.0,225.6842499,2.9,4.0,221.3,12 / 21,3135,2017-05-30 21:24:07:427
1.328,0.441,9.576,0.463,0.041,9.807,0.586,0.177,-0.191,-17.2,-19.5,-37.0,140.4,-0.2,-2.1,57.69,39.35336,16.21969,261.0,225.6842499,2.9,4.0,221.3,12 / 21,3145,2017-05-30 21:24:07:437
1.434,0.509,9.436,0.49,0.041,9.807,0.831,0.395,-0.232,-17.1,-19.6,-37.4,142.5,-0.2,-2.7,57.69,39.35336,16.21969,261.0,225.6842499,2.9,4.0,221.3,12 / 21,3155,2017-05-30 21:24:07:447
1.338,0.461,9.398,0.545,0.068,9.793,0.885,0.436,-0.354,-17.0,-19.8,-37.4,142.5,-0.2,-2.7,57.69,39.35336,16.21969,261.0,225.6842499,2.9,4.0,221.3,12 / 21,3165,2017-05-30 21:24:07:457
1.338,0.461,9.398,0.545,0.068,9.793,0.885,0.436,-0.354,-17.0,-19.8,-37.4,142.5,-0.2,-2.7,57.69,39.35336,16.21969,261.0,225.6842499,2.9,4.0,221.3,12 / 21,3174,2017-05-30 21:24:07:466
0.629,-0.095,9.884,0.572,0.082,9.793,-0.082,-0.15,-0.095,-17.3,-19.6,-37.4,142.5,-0.2,-2.7,57.69,39.35336,16.21969,261.0,225.6842499,2.9,4.0,221.3,12 / 21,3185,2017-05-30 21:24:07:477
0.572,-0.057,9.781,0.627,0.095,9.793,0.0,-0.177,0.095,-17.8,-19.3,-37.1,139.8,-0.5,-3.3,67.7,39.35336,16.21969,261.0,225.6842499,2.9,4.0,221.3,12 / 21,3195,2017-05-30 21:24:07:487
0.572,-0.057,9.781,0.627,0.095,9.793,0.0,-0.177,0.095,-17.8,-19.3,-37.1,139.8,-0.5,-3.3,67.7,39.35336,16.21969,261.0,225.6842499,2.9,4.0,221.3,12 / 21,3205,2017-05-30 21:24:07:497
0.658,-0.047,9.688,0.681,0.109,9.793,-0.109,-0.163,-0.014,-17.6,-19.6,-37.0,139.8,-0.5,-3.3,67.7,39.35336,16.21969,261.0,225.6842499,2.9,4.0,221.3,12 / 21,3215,2017-05-30 21:24:07:507
0.658,-0.047,9.688,0.681,0.109,9.793,-0.109,-0.163,-0.014,-17.6,-19.6,-37.0,139.8,-0.5,-3.3,67.7,39.35336,16.21969,261.0,225.6842499,2.9,4.0,221.3,12 / 21,3225,2017-05-30 21:24:07:517
1.041,0.212,9.735,0.681,0.109,9.793,0.545,0.191,-0.163,-17.4,-19.6,-37.0,143.7,-0.6,-4.0,67.7,39.35336,16.21969,261.0,225.6842499,2.9,4.0,221.3,12 / 21,3235,2017-05-30 21:24:07:527
1.041,0.212,9.735,0.681,0.109,9.793,0.545,0.191,-0.163,-17.4,-19.6,-37.0,143.7,-0.6,-4.0,67.7,39.35336,16.21969,261.0,225.6842499,2.9,4.0,221.3,12 / 21,3245,2017-05-30 21:24:07:537
1.031,0.212,9.735,0.695,0.123,9.793,0.341,0.082,-0.054,-17.4,-19.4,-37.1,143.7,-0.6,-4.0,67.7,39.35336,16.21969,261.0,225.6842499,2.9,4.0,221.3,12 / 21,3255,2017-05-30 21:24:07:547
1.022,0.154,9.725,0.708,0.123,9.793,0.313,0.082,-0.054,-17.3,-19.0,-37.5,143.7,-0.6,-4.0,67.7,39.35336,16.21969,261.0,225.6842499,2.9,4.0,221.3,12 / 21,3265,2017-05-30 21:24:07:557
1.022,0.154,9.725,0.708,0.123,9.793,0.313,0.082,-0.054,-17.3,-19.0,-37.5,143.7,-0.6,-4.0,67.7,39.35336,16.21969,261.0,225.6842499,2.9,4.0,221.3,12 / 21,3275,2017-05-30 21:24:07:567
0.6,-0.124,9.781,0.708,0.123,9.793,-0.041,-0.204,-0.041,-17.0,-19.0,-37.7,142.5,-0.7,-4.1,67.7,39.35336,16.21969,261.0,225.6842499,2.9,4.0,221.3,12 / 21,3284,2017-05-30 21:24:07:576
0.6,-0.124,9.781,0.708,0.123,9.793,-0.041,-0.204,-0.041,-17.0,-19.0,-37.7,142.5,-0.7,-4.1,67.7,39.35336,16.21969,261.0,225.6842499,2.9,4.0,221.3,12 / 21,3294,2017-05-30 21:24:07:586
0.668,-0.124,9.744,0.749,0.136,9.779,-0.15,-0.259,0.0,-17.6,-18.5,-37.9,142.5,-0.7,-4.1,67.7,39.35336,16.21969,261.0,225.6842499,2.9,4.0,221.3,12 / 21,3304,2017-05-30 21:24:07:596
0.658,-0.057,9.809,0.79,0.15,9.779,-0.123,-0.272,-0.041,-17.8,-18.7,-37.6,142.5,-0.7,-4.1,67.7,39.35336,16.21969,261.0,225.6842499,2.9,4.0,221.3,12 / 21,3315,2017-05-30 21:24:07:607
0.658,-0.057,9.809,0.79,0.15,9.779,-0.123,-0.272,-0.041,-17.8,-18.7,-37.6,142.5,-0.7,-4.1,67.7,39.35336,16.21969,261.0,225.6842499,2.9,4.0,221.3,12 / 21,3325,2017-05-30 21:24:07:617
1.319,0.307,9.837,0.804,0.15,9.779,0.368,0.041,-0.014,-18.1,-18.8,-37.6,141.0,-0.9,-4.6,67.7,39.35336,16.21969,261.0,225.6842499,2.9,4.0,221.3,12 / 21,3335,2017-05-30 21:24:07:627
1.319,0.307,9.837,0.804,0.15,9.779,0.368,0.041,-0.014,-18.1,-18.8,-37.6,141.0,-0.9,-4.6,67.7,39.35336,16.21969,261.0,225.6842499,2.9,4.0,221.3,12 / 21,3345,2017-05-30 21:24:07:637
1.386,0.374,9.697,0.804,0.136,9.779,0.504,0.163,0.054,-17.9,-19.2,-37.6,141.0,-0.9,-4.6,67.7,39.35336,16.21969,261.0,225.6842499,2.9,4.0,221.3,12 / 21,3355,2017-05-30 21:24:07:647
1.51,0.509,9.763,0.804,0.136,9.779,0.572,0.232,-0.082,-17.5,-19.0,-37.7,143.1,-0.8,-4.7,67.7,39.35336,16.21969,261.0,225.6842499,2.9,4.0,221.3,12 / 21,3364,2017-05-30 21:24:07:656
1.51,0.509,9.763,0.804,0.136,9.779,0.572,0.232,-0.082,-17.5,-19.0,-37.7,143.1,-0.8,-4.7,67.7,39.35336,16.21969,261.0,225.6842499,2.9,4.0,221.3,12 / 21,3374,2017-05-30 21:24:07:666
0.332,-0.076,9.567,0.804,0.136,9.779,0.695,0.368,-0.014,-17.6,-19.0,-37.4,143.1,-0.8,-4.7,67.7,39.35336,16.21969,261.0,225.6842499,2.9,4.0,221.3,12 / 21,3384,2017-05-30 21:24:07:676
0.505,-0.104,9.894,0.804,0.136,9.779,-0.477,-0.204,-0.218,-17.4,-19.0,-37.4,143.1,-0.8,-4.7,67.7,39.35336,16.21969,261.0,225.6842499,2.9,4.0,221.3,12 / 21,3395,2017-05-30 21:24:07:687
0.505,-0.104,9.894,0.804,0.136,9.779,-0.477,-0.204,-0.218,-17.4,-19.0,-37.4,143.1,-0.8,-4.7,67.7,39.35336,16.21969,261.0,225.6842499,2.9,4.0,221.3,12 / 21,3404,2017-05-30 21:24:07:696
0.447,0.049,9.884,0.804,0.136,9.779,-0.3,-0.232,0.109,-17.1,-19.0,-37.7,143.1,-0.8,-4.7,67.7,39.35336,16.21969,261.0,225.6842499,2.9,4.0,221.3,12 / 21,3414,2017-05-30 21:24:07:706
0.447,0.049,9.884,0.804,0.136,9.779,-0.3,-0.232,0.109,-17.1,-19.0,-37.7,143.1,-0.8,-4.7,67.7,39.35336,16.21969,261.0,225.6842499,2.9,4.0,221.3,12 / 21,3424,2017-05-30 21:24:07:716
1.414,0.537,9.781,0.79,0.136,9.779,-0.354,-0.095,0.109,-17.1,-18.8,-37.2,143.1,-0.8,-4.7,67.7,39.35336,16.21969,261.0,225.6842499,2.9,4.0,221.3,12 / 21,3435,2017-05-30 21:24:07:727
1.52,0.604,9.716,0.79,0.136,9.779,0.613,0.395,0.0,-17.3,-18.8,-37.2,143.1,-0.8,-4.7,67.7,39.35336,16.21969,261.0,225.6842499,2.9,4.0,221.3,10 / 20,3446,2017-05-30 21:24:07:738
1.52,0.604,9.716,0.79,0.136,9.779,0.613,0.395,0.0,-17.3,-18.8,-37.2,143.1,-0.8,-4.7,67.7,39.35336,16.21969,261.0,225.6842499,2.9,4.0,221.3,10 / 20,3455,2017-05-30 21:24:07:747
1.328,0.585,9.735,0.804,0.136,9.779,0.708,0.463,-0.068,-17.1,-18.8,-37.3,142.9,-0.8,-4.6,67.7,39.35336,16.21969,261.0,225.6842499,2.9,4.0,221.3,10 / 20,3465,2017-05-30 21:24:07:757
1.328,0.585,9.735,0.804,0.136,9.779,0.708,0.463,-0.068,-17.1,-18.8,-37.3,142.9,-0.8,-4.6,67.7,39.35337,16.21969,260.0,225.6842499,2.0,4.0,228.1,10 / 20,3475,2017-05-30 21:24:07:767
1.328,0.585,9.735,0.804,0.136,9.779,0.708,0.463,-0.068,-17.1,-18.8,-37.3,142.9,-0.8,-4.6,67.7,39.35337,16.21969,260.0,225.6842499,2.0,4.0,228.1,10 / 20,3484,2017-05-30 21:24:07:776
1.395,0.403,10.034,0.804,0.136,9.779,0.518,0.436,-0.041,-17.4,-18.8,-37.3,142.9,-0.8,-4.6,67.7,39.35337,16.21969,260.0,225.6842499,2.0,4.0,228.1,10 / 20,3494,2017-05-30 21:24:07:786
0.715,0.327,9.903,0.804,0.136,9.779,0.586,0.259,0.259,-17.8,-18.9,-37.1,141.1,-0.8,-4.7,67.7,39.35337,16.21969,260.0,225.6842499,2.0,4.0,228.1,10 / 20,3505,2017-05-30 21:24:07:797
0.715,0.327,9.903,0.804,0.136,9.779,0.586,0.259,0.259,-17.8,-18.9,-37.1,141.1,-0.8,-4.7,67.7,39.35337,16.21969,260.0,225.6842499,2.0,4.0,228.1,10 / 20,3514,2017-05-30 21:24:07:806
1.156,0.164,9.52,0.804,0.136,9.779,-0.109,-0.123,-0.123,-17.8,-19.1,-37.1,141.1,-0.8,-4.7,64.52,39.35337,16.21969,260.0,225.6842499,2.0,4.0,228.1,10 / 20,3524,2017-05-30 21:24:07:816
1.319,0.451,9.529,0.804,0.136,9.779,0.341,0.027,-0.259,-17.6,-19.4,-36.9,141.1,-0.8,-4.7,64.52,39.35337,16.21969,260.0,225.6842499,2.0,4.0,228.1,10 / 20,3534,2017-05-30 21:24:07:826
1.319,0.451,9.529,0.804,0.136,9.779,-0.3,-0.014,-0.041,-17.8,-19.3,-36.8,141.1,-0.8,-4.7,64.52,39.35337,16.21969,260.0,225.6842499,2.0,4.0,228.1,10 / 20,3545,2017-05-30 21:24:07:837
1.079,0.413,9.772,0.804,0.136,9.779,-0.3,-0.014,-0.041,-17.8,-19.3,-36.8,141.1,-0.8,-4.7,64.52,39.35337,16.21969,260.0,225.6842499,2.0,4.0,228.1,10 / 20,3555,2017-05-30 21:24:07:847
1.079,0.413,9.772,0.804,0.136,9.779,-0.286,-0.15,-0.027,-17.8,-19.4,-36.8,141.1,-0.8,-4.7,64.52,39.35337,16.21969,260.0,225.6842499,2.0,4.0,228.1,10 / 20,3565,2017-05-30 21:24:07:857
1.079,0.413,9.772,0.804,0.136,9.779,-0.286,-0.15,-0.027,-17.8,-19.4,-36.8,141.1,-0.8,-4.7,64.52,39.35337,16.21969,260.0,225.6842499,2.0,4.0,228.1,10 / 20,3575,2017-05-30 21:24:07:867
0.744,0.212,9.866,0.817,0.15,9.779,-0.272,-0.204,-0.014,-18.1,-19.3,-37.6,141.2,-0.8,-4.7,64.52,39.35337,16.21969,260.0,225.6842499,2.0,4.0,228.1,10 / 20,3584,2017-05-30 21:24:07:876
0.639,0.221,9.809,0.817,0.15,9.779,-0.272,-0.204,-0.014,-18.1,-19.3,-37.6,141.2,-0.8,-4.7,64.52,39.35337,16.21969,260.0,225.6842499,2.0,4.0,228.1,10 / 20,3594,2017-05-30 21:24:07:886
0.639,0.221,9.809,0.817,0.136,9.779,-0.177,-0.027,-0.041,-18.3,-19.3,-38.1,141.2,-0.8,-4.7,64.52,39.35337,16.21969,260.0,225.6842499,2.0,4.0,228.1,10 / 20,3604,2017-05-30 21:24:07:896
0.639,0.221,9.809,0.817,0.136,9.779,-0.177,-0.027,-0.041,-18.3,-19.3,-38.1,141.2,-0.8,-4.7,64.52,39.35337,16.21969,260.0,225.6842499,2.0,4.0,228.1,10 / 20,3615,2017-05-30 21:24:07:907
0.313,0.164,9.557,0.817,0.136,9.779,-0.191,0.082,0.027,-18.0,-19.0,-38.2,141.3,-0.8,-4.8,64.52,39.35337,16.21969,260.0,225.6842499,2.0,4.0,228.1,10 / 20,3625,2017-05-30 21:24:07:917
0.313,0.164,9.557,0.817,0.136,9.779,-0.191,0.082,0.027,-18.0,-19.0,-38.2,141.3,-0.8,-4.8,64.52,39.35337,16.21969,260.0,225.6842499,2.0,4.0,228.1,10 / 20,3635,2017-05-30 21:24:07:927
0.332,0.068,9.828,0.817,0.136,9.779,-0.504,0.027,-0.218,-18.1,-19.1,-38.2,141.3,-0.8,-4.8,64.52,39.35337,16.21969,260.0,225.6842499,2.0,4.0,228.1,10 / 20,3645,2017-05-30 21:24:07:937
0.457,0.279,9.51,0.831,0.15,9.779,-0.163,0.191,-0.341,-18.0,-19.3,-38.1,141.3,-0.8,-4.8,64.52,39.35337,16.21969,260.0,225.6842499,2.0,4.0,228.1,10 / 20,3655,2017-05-30 21:24:07:947
0.179,0.192,9.454,0.804,0.177,9.779,-0.354,0.095,-0.272,-18.0,-19.5,-37.7,141.3,-0.9,-4.9,64.52,39.35337,16.21969,260.0,225.6842499,2.0,4.0,228.1,10 / 20,3665,2017-05-30 21:24:07:957
0.179,0.192,9.454,0.804,0.177,9.779,-0.354,0.095,-0.272,-18.0,-19.5,-37.7,141.3,-0.9,-4.9,64.52,39.35337,16.21969,260.0,225.6842499,2.0,4.0,228.1,10 / 20,3675,2017-05-30 21:24:07:967
-0.079,0.116,9.669,0.776,0.204,9.779,-0.599,-0.014,-0.327,-18.0,-19.3,-37.1,141.3,-0.9,-4.9,64.52,39.35337,16.21969,260.0,225.6842499,2.0,4.0,228.1,10 / 20,3685,2017-05-30 21:24:07:977
-0.175,0.154,9.436,0.776,0.204,9.779,-0.599,-0.014,-0.327,-18.0,-19.3,-37.1,141.3,-0.9,-4.9,64.52,39.35337,16.21969,260.0,225.6842499,2.0,4.0,228.1,10 / 20,3695,2017-05-30 21:24:07:987
-0.175,0.154,9.436,0.735,0.204,9.779,-0.49,-0.068,-0.3,-18.1,-19.4,-36.8,140.5,-1.2,-4.5,64.52,39.35337,16.21969,260.0,225.6842499,2.0,4.0,228.1,10 / 20,3705,2017-05-30 21:24:07:997
-0.127,0.116,9.389,0.722,0.218,9.779,-0.885,-0.068,-0.341,-18.1,-19.4,-36.8,140.5,-1.2,-4.5,64.52,39.35337,16.21969,260.0,225.6842499,2.0,4.0,228.1,10 / 20,3715,2017-05-30 21:24:08:007
-0.127,0.116,9.389,0.722,0.218,9.779,-0.885,-0.068,-0.341,-18.1,-19.4,-36.8,140.5,-1.2,-4.5,64.52,39.35337,16.21969,260.0,225.6842499,2.0,4.0,228.1,10 / 20,3725,2017-05-30 21:24:08:017
-0.702,0.125,9.52,0.64,0.218,9.793,-0.763,-0.109,-0.409,-18.0,-18.8,-36.8,140.5,-1.2,-4.5,64.52,39.35337,16.21969,260.0,225.6842499,2.0,4.0,228.1,10 / 20,3735,2017-05-30 21:24:08:027
-0.702,0.125,9.52,0.64,0.218,9.793,-0.763,-0.109,-0.409,-18.0,-18.8,-36.8,140.5,-1.2,-4.5,64.52,39.35337,16.21969,260.0,225.6842499,2.0,4.0,228.1,10 / 20,3745,2017-05-30 21:24:08:037
-0.846,-0.028,9.978,0.599,0.218,9.793,-1.294,-0.095,-0.272,-18.0,-18.9,-37.0,139.4,-1.3,-3.7,64.52,39.35337,16.21969,260.0,225.6842499,2.0,4.0,228.1,10 / 20,3755,2017-05-30 21:24:08:047
-1.095,-0.152,9.996,0.504,0.204,9.793,-1.348,-0.232,0.191,-18.1,-19.0,-37.2,139.4,-1.3,-3.7,64.52,39.35337,16.21969,260.0,225.6842499,2.0,4.0,228.1,10 / 20,3764,2017-05-30 21:24:08:056
-1.095,-0.152,9.996,0.504,0.204,9.793,-1.348,-0.232,0.191,-18.1,-19.0,-37.2,139.4,-1.3,-3.7,64.52,39.35337,16.21969,260.0,225.6842499,2.0,4.0,228.1,10 / 20,3774,2017-05-30 21:24:08:066
-0.357,0.078,9.099,0.395,0.191,9.807,-1.485,-0.341,0.191,-18.3,-18.5,-37.1,138.6,-1.2,-2.9,64.52,39.35337,16.21969,260.0,225.6842499,2.0,4.0,228.1,10 / 20,3784,2017-05-30 21:24:08:076
-0.328,0.106,9.118,0.341,0.177,9.807,-0.695,-0.109,-0.708,-18.3,-18.5,-37.0,138.6,-1.2,-2.9,64.52,39.35337,16.21969,260.0,225.6842499,2.0,4.0,228.1,10 / 20,3794,2017-05-30 21:24:08:086
-0.328,0.106,9.118,0.341,0.177,9.807,-0.695,-0.109,-0.708,-18.3,-18.5,-37.0,138.6,-1.2,-2.9,64.52,39.35337,16.21969,260.0,225.6842499,2.0,4.0,228.1,10 / 20,3804,2017-05-30 21:24:08:096
-0.185,-0.085,9.277,0.204,0.163,9.807,-0.531,-0.068,-0.695,-18.2,-18.6,-36.7,138.6,-1.2,-2.9,64.52,39.35337,16.21969,260.0,225.6842499,2.0,4.0,228.1,10 / 20,3814,2017-05-30 21:24:08:106
-0.185,-0.085,9.277,0.204,0.163,9.807,-0.531,-0.068,-0.695,-18.2,-18.6,-36.7,138.6,-1.2,-2.9,64.52,39.35337,16.21969,260.0,225.6842499,2.0,4.0,228.1,10 / 20,3824,2017-05-30 21:24:08:116
-1.066,-0.42,9.8,0.082,0.15,9.807,-0.259,-0.232,-0.531,-18.2,-18.8,-36.5,136.8,-1.0,-1.2,64.52,39.35337,16.21969,260.0,225.6842499,2.0,4.0,228.1,10 / 20,3835,2017-05-30 21:24:08:127
-1.066,-0.42,9.8,0.082,0.15,9.807,-0.259,-0.232,-0.531,-18.2,-18.8,-36.5,136.8,-1.0,-1.2,64.52,39.35337,16.21969,260.0,225.6842499,2.0,4.0,228.1,10 / 20,3845,2017-05-30 21:24:08:137
-0.999,-0.248,9.697,0.027,0.15,9.807,-1.09,-0.558,0.0,-18.0,-18.7,-36.5,136.8,-1.0,-1.2,64.74,39.35337,16.21969,260.0,225.6842499,2.0,4.0,228.1,10 / 20,3856,2017-05-30 21:24:08:148
-0.817,-0.306,9.417,-0.082,0.123,9.807,-0.913,-0.368,-0.109,-17.6,-18.7,-36.1,136.8,-1.0,-1.2,64.74,39.35337,16.21969,260.0,225.6842499,2.0,4.0,228.1,10 / 20,3864,2017-05-30 21:24:08:156
-0.817,-0.306,9.417,-0.082,0.123,9.807,-0.913,-0.368,-0.109,-17.6,-18.7,-36.1,136.8,-1.0,-1.2,64.74,39.35337,16.21969,260.0,225.6842499,2.0,4.0,228.1,10 / 20,3875,2017-05-30 21:24:08:167
-1.564,-0.181,9.408,-0.204,0.095,9.807,-0.613,-0.395,-0.395,-17.6,-18.2,-35.8,133.8,-0.7,0.5,64.74,39.35337,16.21969,260.0,225.6842499,2.0,4.0,228.1,10 / 20,3885,2017-05-30 21:24:08:177
-1.564,-0.181,9.408,-0.204,0.095,9.807,-0.613,-0.395,-0.395,-17.6,-18.2,-35.8,133.8,-0.7,0.5,64.74,39.35337,16.21969,260.0,225.6842499,2.0,4.0,228.1,10 / 20,3895,2017-05-30 21:24:08:187
-1.832,-0.545,9.912,-0.259,0.068,9.807,-1.294,-0.245,-0.395,-17.5,-17.9,-35.7,133.8,-0.7,0.5,64.74,39.35337,16.21969,260.0,225.6842499,2.0,4.0,228.1,10 / 20,3905,2017-05-30 21:24:08:197
-2.177,-0.602,9.716,-0.395,0.041,9.807,-1.43,-0.586,0.109,-17.5,-17.7,-35.6,133.8,-0.7,0.5,64.74,39.35337,16.21969,260.0,225.6842499,2.0,4.0,228.1,10 / 20,3914,2017-05-30 21:24:08:206
-2.177,-0.602,9.716,-0.395,0.041,9.807,-1.43,-0.586,0.109,-17.5,-17.7,-35.6,133.8,-0.7,0.5,64.74,39.35337,16.21969,260.0,225.6842499,2.0,4.0,228.1,10 / 20,3924,2017-05-30 21:24:08:216
-0.903,0.058,9.258,-0.518,0.014,9.793,-1.648,-0.613,-0.082,-17.8,-17.8,-35.8,132.6,-0.2,2.3,64.74,39.35337,16.21969,260.0,225.6842499,2.0,4.0,228.1,10 / 20,3934,2017-05-30 21:24:08:226
-0.903,0.058,9.258,-0.518,0.014,9.793,-1.648,-0.613,-0.082,-17.8,-17.8,-35.8,132.6,-0.2,2.3,64.74,39.35337,16.21969,260.0,225.6842499,2.0,4.0,228.1,10 / 20,3944,2017-05-30 21:24:08:236
-1.085,-0.143,9.015,-0.586,0.0,9.793,-0.313,0.054,-0.531,-17.7,-17.7,-35.9,132.6,-0.2,2.3,64.74,39.35337,16.21969,260.0,225.6842499,2.0,4.0,228.1,10 / 20,3954,2017-05-30 21:24:08:246
-1.229,-0.181,9.389,-0.722,-0.041,9.793,-0.354,-0.095,-0.776,-17.5,-17.9,-36.1,132.6,-0.2,2.3,64.74,39.35337,16.21969,260.0,225.6842499,2.0,4.0,228.1,10 / 20,3964,2017-05-30 21:24:08:256
-1.229,-0.181,9.389,-0.722,-0.041,9.793,-0.354,-0.095,-0.776,-17.5,-17.9,-36.1,132.6,-0.2,2.3,64.74,39.35337,16.21969,260.0,225.6842499,2.0,4.0,228.1,10 / 20,3974,2017-05-30 21:24:08:266
-1.324,-0.267,9.482,-0.831,-0.082,9.779,-0.395,-0.095,-0.395,-17.2,-17.9,-35.8,132.8,0.2,4.2,64.74,39.35337,16.21969,260.0,225.6842499,2.0,4.0,228.1,10 / 20,3984,2017-05-30 21:24:08:276
-0.941,-0.095,9.296,-0.831,-0.082,9.779,-0.395,-0.095,-0.395,-17.2,-17.9,-35.8,132.8,0.2,4.2,64.74,39.35337,16.21969,260.0,225.6842499,2.0,4.0,228.1,10 / 20,3995,2017-05-30 21:24:08:287
-0.941,-0.095,9.296,-0.913,-0.123,9.766,-0.545,-0.123,-0.054,-17.0,-17.8,-35.5,132.8,0.2,4.2,64.74,39.35337,16.21969,260.0,225.6842499,2.0,4.0,228.1,10 / 20,4005,2017-05-30 21:24:08:297
-0.941,-0.095,9.296,-0.913,-0.123,9.766,-0.545,-0.123,-0.054,-17.0,-17.8,-35.5,132.8,0.2,4.2,64.74,39.35337,16.21969,260.0,225.6842499,2.0,4.0,228.1,10 / 20,4014,2017-05-30 21:24:08:306
-0.75,0.078,9.361,-0.953,-0.136,9.766,0.014,0.054,-0.477,-17.3,-17.9,-35.7,132.8,0.2,4.2,64.74,39.35337,16.21969,260.0,225.6842499,2.0,4.0,228.1,10 / 20,4024,2017-05-30 21:24:08:316
-1.861,-0.353,9.959,-0.994,-0.15,9.766,-0.749,-0.109,0.0,-17.3,-17.6,-35.7,132.1,0.8,5.6,64.74,39.35337,16.21969,260.0,225.6842499,2.0,4.0,228.1,10 / 20,4034,2017-05-30 21:24:08:326
-1.861,-0.353,9.959,-0.994,-0.15,9.766,-0.749,-0.109,0.0,-17.3,-17.6,-35.7,132.1,0.8,5.6,64.74,39.35337,16.21969,260.0,225.6842499,2.0,4.0,228.1,10 / 20,4044,2017-05-30 21:24:08:336
-1.478,-0.535,9.781,-1.076,-0.177,9.752,-0.776,-0.163,0.204,-17.5,-17.3,-35.9,132.1,0.8,5.6,64.74,39.35337,16.21969,260.0,225.6842499,2.0,4.0,228.1,10 / 20,4055,2017-05-30 21:24:08:347
-1.066,-0.401,9.679,-1.144,-0.204,9.739,-0.327,-0.327,0.041,-17.6,-17.3,-36.0,132.1,0.8,5.6,64.74,39.35337,16.21969,260.0,225.6842499,2.0,4.0,228.1,10 / 20,4065,2017-05-30 21:24:08:357
-1.066,-0.401,9.679,-1.144,-0.204,9.739,-0.327,-0.327,0.041,-17.6,-17.3,-36.0,132.1,0.8,5.6,64.74,39.35337,16.21969,260.0,225.6842499,2.0,4.0,228.1,10 / 20,4075,2017-05-30 21:24:08:367
-1.573,-0.392,9.763,-1.226,-0.218,9.739,0.163,-0.177,-0.054,-17.6,-17.7,-36.2,130.3,1.2,6.7,64.74,39.35337,16.21969,260.0,225.6842499,2.0,4.0,228.1,10 / 20,4084,2017-05-30 21:24:08:376
-1.765,-0.631,10.024,-1.253,-0.218,9.725,-0.313,-0.163,0.041,-17.3,-17.3,-36.2,130.3,1.2,6.7,64.74,39.35337,16.21969,260.0,225.6842499,2.0,4.0,228.1,10 / 20,4094,2017-05-30 21:24:08:386
-1.765,-0.631,10.024,-1.253,-0.218,9.725,-0.313,-0.163,0.041,-17.3,-17.3,-36.2,130.3,1.2,6.7,64.74,39.35337,16.21969,260.0,225.6842499,2.0,4.0,228.1,10 / 20,4106,2017-05-30 21:24:08:398
-1.363,-0.42,10.015,-1.294,-0.232,9.725,-0.463,-0.395,0.3,-17.4,-17.4,-35.7,130.3,1.2,6.7,64.74,39.35337,16.21969,260.0,225.6842499,2.0,4.0,228.1,10 / 20,4114,2017-05-30 21:24:08:406
-1.363,-0.42,10.015,-1.294,-0.232,9.725,-0.463,-0.395,0.3,-17.4,-17.4,-35.7,130.3,1.2,6.7,64.74,39.35337,16.21969,260.0,225.6842499,2.0,4.0,228.1,10 / 20,4125,2017-05-30 21:24:08:417
-0.98,0.125,9.716,-1.335,-0.245,9.725,-0.027,-0.163,0.286,-17.2,-17.0,-35.5,129.5,1.4,7.6,64.74,39.35337,16.21969,260.0,225.6842499,2.0,4.0,228.1,10 / 20,4135,2017-05-30 21:24:08:427
-1.075,-0.047,9.819,-1.335,-0.245,9.725,-0.027,-0.163,0.286,-17.2,-17.0,-35.5,129.5,1.4,7.6,64.74,39.35337,16.21969,260.0,225.6842499,2.0,4.0,228.1,10 / 20,4144,2017-05-30 21:24:08:436
-1.075,-0.047,9.819,-1.362,-0.259,9.711,0.368,-0.082,0.014,-17.5,-16.8,-35.6,129.5,1.4,7.6,64.74,39.35337,16.21969,260.0,225.6842499,2.0,4.0,228.1,10 / 20,4156,2017-05-30 21:24:08:448
-1.411,-0.296,10.052,-1.362,-0.259,9.711,0.286,0.218,0.109,-17.7,-16.8,-35.6,129.5,1.4,7.6,64.74,39.35337,16.21969,260.0,225.6842499,2.0,4.0,228.1,10 / 20,4164,2017-05-30 21:24:08:456
-1.411,-0.296,10.052,-1.362,-0.259,9.711,0.286,0.218,0.109,-17.7,-16.8,-35.6,129.5,1.4,7.6,64.74,39.35337,16.21969,260.0,225.6842499,2.0,4.0,228.1,10 / 20,4174,2017-05-30 21:24:08:466
-0.558,-0.171,9.501,-1.348,-0.272,9.711,-0.054,-0.014,0.341,-18.0,-17.4,-35.4,128.2,1.5,8.0,59.9,39.35337,16.21969,260.0,225.6842499,2.0,4.0,228.1,10 / 20,4184,2017-05-30 21:24:08:476
-0.558,-0.171,9.501,-1.348,-0.272,9.711,-0.054,-0.014,0.341,-18.0,-17.4,-35.4,128.2,1.5,8.0,59.9,39.35337,16.21969,260.0,225.6842499,2.0,4.0,228.1,10 / 20,4194,2017-05-30 21:24:08:486
-0.884,0.001,9.613,-1.321,-0.272,9.725,0.763,0.109,-0.218,-17.9,-17.8,-35.6,128.2,1.5,8.0,59.9,39.35337,16.21969,260.0,225.6842499,2.0,4.0,228.1,10 / 20,4204,2017-05-30 21:24:08:496
-0.884,0.001,9.613,-1.321,-0.272,9.725,0.763,0.109,-0.218,-17.9,-17.8,-35.6,128.2,1.5,8.0,59.9,39.35337,16.21969,260.0,225.6842499,2.0,4.0,228.1,10 / 20,4214,2017-05-30 21:24:08:506
-1.008,0.097,9.735,-1.321,-0.272,9.725,0.449,0.272,-0.109,-17.7,-17.3,-35.9,128.2,1.5,8.0,59.9,39.35337,16.21969,260.0,225.6842499,2.0,4.0,228.1,10 / 20,4224,2017-05-30 21:24:08:516
-0.539,0.039,9.38,-1.267,-0.272,9.725,0.259,0.368,0.014,-17.8,-17.9,-36.5,129.8,1.6,7.7,59.9,39.35337,16.21969,260.0,225.6842499,2.0,4.0,228.1,10 / 20,4234,2017-05-30 21:24:08:526
-0.539,0.039,9.38,-1.267,-0.272,9.725,0.259,0.368,0.014,-17.8,-17.9,-36.5,129.8,1.6,7.7,59.9,39.35337,16.21969,260.0,225.6842499,2.0,4.0,228.1,10 / 20,4244,2017-05-30 21:24:08:536
-0.453,0.087,9.51,-1.226,-0.259,9.739,0.695,0.286,-0.354,-17.6,-17.9,-36.2,129.8,1.6,7.7,59.9,39.35337,16.21969,260.0,225.6842499,2.0,4.0,228.1,10 / 20,4254,2017-05-30 21:24:08:546
-0.846,0.116,9.828,-1.212,-0.259,9.739,0.763,0.341,-0.232,-17.6,-17.6,-36.4,129.8,1.6,7.7,59.9,39.35337,16.21969,260.0,225.6842499,2.0,4.0,228.1,10 / 20,4264,2017-05-30 21:24:08:556
-0.846,0.116,9.828,-1.212,-0.259,9.739,0.763,0.341,-0.232,-17.6,-17.6,-36.4,129.8,1.6,7.7,59.9,39.35337,16.21969,260.0,225.6842499,2.0,4.0,228.1,10 / 20,4274,2017-05-30 21:24:08:566
-0.424,-0.095,9.492,-1.13,-0.232,9.752,0.286,0.341,0.082,-17.6,-17.9,-36.5,130.1,1.5,7.1,59.9,39.35337,16.21969,260.0,225.6842499,2.0,4.0,228.1,10 / 20,4284,2017-05-30 21:24:08:576
-0.386,0.106,9.23,-1.13,-0.232,9.752,0.286,0.341,0.082,-17.6,-17.9,-36.5,130.1,1.5,7.1,59.9,39.35337,16.21969,260.0,225.6842499,2.0,4.0,228.1,10 / 20,4294,2017-05-30 21:24:08:586
-0.386,0.106,9.23,-1.049,-0.204,9.752,-0.177,0.068,0.163,-17.3,-18.1,-35.9,130.1,1.5,7.1,59.9,39.35337,16.21969,260.0,225.6842499,2.0,4.0,228.1,10 / 20,4306,2017-05-30 21:24:08:598
-0.386,0.106,9.23,-1.049,-0.204,9.752,-0.177,0.068,0.163,-17.3,-18.1,-35.9,130.1,1.5,7.1,59.9,39.35337,16.21969,260.0,225.6842499,2.0,4.0,228.1,10 / 20,4314,2017-05-30 21:24:08:606
-0.491,0.269,9.632,-1.035,-0.191,9.752,0.654,0.286,-0.518,-17.3,-18.1,-35.7,130.1,1.5,7.1,59.9,39.35337,16.21969,260.0,225.6842499,2.0,4.0,228.1,10 / 20,4325,2017-05-30 21:24:08:617
-0.654,-0.248,9.324,-1.022,-0.191,9.752,0.531,0.449,-0.123,-17.5,-18.2,-35.8,132.0,1.1,6.1,59.9,39.35337,16.21969,260.0,225.6842499,2.0,4.0,228.1,10 / 20,4335,2017-05-30 21:24:08:627
-0.654,-0.248,9.324,-1.022,-0.191,9.752,0.531,0.449,-0.123,-17.5,-18.2,-35.8,132.0,1.1,6.1,59.9,39.35337,16.21969,260.0,225.6842499,2.0,4.0,228.1,10 / 20,4345,2017-05-30 21:24:08:637
-0.51,-0.028,9.37,-1.008,-0.177,9.766,0.354,-0.068,-0.436,-17.5,-17.8,-36.1,132.0,1.1,6.1,59.9,39.35337,16.21969,260.0,225.6842499,2.0,4.0,228.1,10 / 20,4355,2017-05-30 21:24:08:647
-0.826,0.231,9.445,-0.953,-0.15,9.766,0.449,0.123,-0.395,-17.6,-17.8,-36.0,132.0,1.1,6.1,59.9,39.35337,16.21969,260.0,225.6842499,2.0,4.0,228.1,10 / 20,4364,2017-05-30 21:24:08:656
-0.826,0.231,9.445,-0.953,-0.15,9.766,0.449,0.123,-0.395,-17.6,-17.8,-36.0,132.0,1.1,6.1,59.9,39.35337,16.21969,260.0,225.6842499,2.0,4.0,228.1,10 / 20,4374,2017-05-30 21:24:08:666
-0.721,-0.124,9.408,-0.913,-0.109,9.766,0.095,0.327,-0.327,-17.9,-17.6,-36.2,130.9,0.9,5.6,59.9,39.35337,16.21969,260.0,225.6842499,2.0,4.0,228.1,10 / 20,4384,2017-05-30 21:24:08:676
-0.721,-0.124,9.408,-0.913,-0.109,9.766,0.095,0.327,-0.327,-17.9,-17.6,-36.2,130.9,0.9,5.6,59.9,39.35337,16.21969,260.0,225.6842499,2.0,4.0,228.1,10 / 20,4394,2017-05-30 21:24:08:686
-0.491,0.087,9.426,-0.899,-0.095,9.766,0.191,-0.027,-0.354,-17.9,-17.6,-36.2,130.9,0.9,5.6,59.9,39.35337,16.21969,260.0,225.6842499,2.0,4.0,228.1,10 / 20,4404,2017-05-30 21:24:08:696
-0.673,0.145,9.557,-0.885,-0.082,9.779,0.395,0.163,-0.354,-18.0,-17.6,-36.2,130.9,0.9,5.6,59.9,39.35337,16.21969,260.0,225.6842499,2.0,4.0,228.1,10 / 20,4414,2017-05-30 21:24:08:706
-0.673,0.145,9.557,-0.885,-0.082,9.779,0.395,0.163,-0.354,-18.0,-17.6,-36.2,130.9,0.9,5.6,59.9,39.35337,16.21969,260.0,225.6842499,2.0,4.0,228.1,10 / 20,4424,2017-05-30 21:24:08:716
-0.836,-0.325,9.539,-0.885,-0.082,9.779,0.218,0.218,-0.218,-18.0,-17.7,-36.2,130.8,0.5,5.2,59.9,39.35337,16.21969,260.0,225.6842499,2.0,4.0,228.1,10 / 20,4434,2017-05-30 21:24:08:726
-0.836,-0.325,9.539,-0.885,-0.082,9.779,0.218,0.218,-0.218,-18.0,-17.7,-36.2,130.8,0.5,5.2,59.9,39.35337,16.21969,260.0,225.6842499,2.0,4.0,228.1,10 / 20,4446,2017-05-30 21:24:08:738
-0.836,-0.325,9.539,-0.885,-0.082,9.779,0.218,0.218,-0.218,-18.0,-17.7,-36.2,130.8,0.5,5.2,59.9,39.35337,16.21969,260.0,225.6842499,2.0,4.0,228.1,10 / 20,4457,2017-05-30 21:24:08:749
-0.692,-0.181,9.445,-0.885,-0.082,9.779,-0.014,0.054,0.014,-17.9,-17.1,-36.4,130.8,0.5,5.2,59.9,39.35337,16.21969,260.0,225.6842499,0.0,4.0,,12 / 20,4465,2017-05-30 21:24:08:757
-0.539,0.097,9.333,-0.885,-0.082,9.779,-0.014,0.054,0.014,-17.9,-17.1,-36.4,130.8,0.5,5.2,59.9,39.35337,16.21969,260.0,225.6842499,0.0,4.0,,12 / 20,4475,2017-05-30 21:24:08:767
-0.539,0.097,9.333,-0.885,-0.082,9.779,-0.014,0.054,0.014,-17.9,-17.1,-36.4,130.8,0.5,5.2,59.9,39.35337,16.21969,260.0,225.6842499,0.0,4.0,,12 / 20,4485,2017-05-30 21:24:08:777
-0.539,0.097,9.333,-0.885,-0.082,9.779,-0.014,0.054,0.014,-17.9,-17.1,-36.4,130.8,0.5,5.2,59.9,39.35337,16.21969,260.0,225.6842499,0.0,4.0,,12 / 20,4497,2017-05-30 21:24:08:789
-0.999,0.03,9.679,-0.872,-0.068,9.779,0.014,0.136,-0.163,-17.9,-16.8,-36.7,129.1,0.5,5.2,59.9,39.35337,16.21969,260.0,225.6842499,0.0,4.0,,12 / 20,4505,2017-05-30 21:24:08:797
-0.817,0.116,9.688,-0.872,-0.068,9.779,0.014,0.136,-0.163,-17.9,-16.8,-36.7,129.1,0.5,5.2,63.45,39.35337,16.21969,260.0,225.6842499,0.0,4.0,,12 / 20,4515,2017-05-30 21:24:08:807
-0.817,0.116,9.688,-0.858,-0.054,9.779,0.327,0.0,-0.218,-17.9,-17.1,-36.5,129.1,0.5,5.2,63.45,39.35337,16.21969,260.0,225.6842499,0.0,4.0,,12 / 20,4525,2017-05-30 21:24:08:817
-0.338,-0.037,9.548,-0.858,-0.054,9.779,0.327,0.0,-0.218,-17.9,-17.1,-36.5,129.1,0.5,5.2,63.45,39.35337,16.21969,260.0,225.6842499,0.0,4.0,,12 / 20,4535,2017-05-30 21:24:08:827
-0.338,-0.037,9.548,-0.858,-0.054,9.779,0.327,0.0,-0.218,-17.9,-17.1,-36.5,129.1,0.5,5.2,63.45,39.35337,16.21969,260.0,225.6842499,0.0,4.0,,12 / 20,4545,2017-05-30 21:24:08:837
-0.865,0.049,9.585,-0.844,-0.041,9.779,0.518,0.014,-0.232,-17.9,-16.7,-37.1,129.1,0.3,5.0,63.45,39.35337,16.21969,260.0,225.6842499,0.0,4.0,,12 / 20,4555,2017-05-30 21:24:08:847
-0.453,0.221,9.707,-0.831,-0.014,9.779,-0.027,0.054,-0.191,-17.9,-17.0,-37.4,129.1,0.3,5.0,63.45,39.35337,16.21969,260.0,225.6842499,0.0,4.0,,12 / 20,4565,2017-05-30 21:24:08:857
-0.453,0.221,9.707,-0.831,-0.014,9.779,-0.027,0.054,-0.191,-17.9,-17.0,-37.4,129.1,0.3,5.0,63.45,39.35337,16.21969,260.0,225.6842499,0.0,4.0,,12 / 20,4575,2017-05-30 21:24:08:867
-0.769,0.125,9.52,-0.831,-0.014,9.779,0.381,0.232,-0.068,-17.9,-17.3,-37.7,128.9,0.1,4.9,63.45,39.35337,16.21969,260.0,225.6842499,0.0,4.0,,12 / 20,4585,2017-05-30 21:24:08:877
-0.549,0.039,9.576,-0.831,-0.014,9.779,0.068,0.136,-0.259,-17.9,-17.6,-37.8,128.9,0.1,4.9,63.45,39.35337,16.21969,260.0,225.6842499,0.0,4.0,,12 / 20,4594,2017-05-30 21:24:08:886
-0.549,0.039,9.576,-0.831,-0.014,9.779,0.068,0.136,-0.259,-17.9,-17.6,-37.8,128.9,0.1,4.9,63.45,39.35337,16.21969,260.0,225.6842499,0.0,4.0,,12 / 20,4605,2017-05-30 21:24:08:897
-0.549,0.039,9.576,-0.831,-0.014,9.779,0.068,0.136,-0.259,-17.9,-17.6,-37.8,128.9,0.1,4.9,63.45,39.35337,16.21969,260.0,225.6842499,0.0,4.0,,12 / 20,4615,2017-05-30 21:24:08:907
-0.664,0.001,9.716,-0.817,-0.014,9.779,0.272,0.041,-0.204,-17.8,-17.9,-37.5,130.6,0.1,4.9,63.45,39.35337,16.21969,260.0,225.6842499,0.0,4.0,,12 / 20,4625,2017-05-30 21:24:08:917
-0.654,0.011,9.725,-0.817,-0.014,9.779,0.163,0.014,-0.068,-17.8,-18.3,-36.8,130.6,0.1,4.9,63.45,39.35337,16.21969,260.0,225.6842499,0.0,4.0,,12 / 20,4635,2017-05-30 21:24:08:927
-0.654,0.011,9.725,-0.817,-0.014,9.779,0.163,0.014,-0.068,-17.8,-18.3,-36.8,130.6,0.1,4.9,63.45,39.35337,16.21969,260.0,225.6842499,0.0,4.0,,12 / 20,4645,2017-05-30 21:24:08:937
-0.261,-0.258,9.912,-0.817,-0.014,9.779,0.163,0.014,-0.054,-17.6,-18.3,-36.8,130.6,0.1,4.9,63.45,39.35337,16.21969,260.0,225.6842499,0.0,4.0,,12 / 20,4654,2017-05-30 21:24:08:946
-0.233,-0.133,9.595,-0.776,0.0,9.779,0.518,-0.245,0.136,-17.7,-18.1,-37.0,130.7,0.1,4.8,63.45,39.35337,16.21969,260.0,225.6842499,0.0,4.0,,12 / 20,4665,2017-05-30 21:24:08:957
-0.233,-0.133,9.595,-0.776,0.0,9.779,0.518,-0.245,0.136,-17.7,-18.1,-37.0,130.7,0.1,4.8,63.45,39.35337,16.21969,260.0,225.6842499,0.0,4.0,,12 / 20,4675,2017-05-30 21:24:08:967
-0.731,-0.392,9.716,-0.749,0.0,9.779,0.518,-0.123,-0.191,-17.8,-17.4,-37.3,130.7,0.1,4.8,63.45,39.35337,16.21969,260.0,225.6842499,0.0,4.0,,12 / 20,4685,2017-05-30 21:24:08:977
-0.731,-0.392,9.716,-0.749,0.0,9.779,0.518,-0.123,-0.191,-17.8,-17.4,-37.3,130.7,0.1,4.8,63.45,39.35337,16.21969,260.0,225.6842499,0.0,4.0,,12 / 20,4695,2017-05-30 21:24:08:987
-0.309,-0.191,9.613,-0.749,0.0,9.779,0.027,-0.381,-0.068,-18.0,-17.2,-37.1,130.7,0.1,4.8,63.45,39.35337,16.21969,260.0,225.6842499,0.0,4.0,,12 / 20,4704,2017-05-30 21:24:08:996
-0.405,0.02,9.697,-0.735,0.0,9.779,0.436,-0.191,-0.163,-18.1,-17.1,-37.1,129.3,0.0,4.4,63.45,39.35337,16.21969,260.0,225.6842499,0.0,4.0,,12 / 20,4715,2017-05-30 21:24:09:007
-0.405,0.02,9.697,-0.735,0.0,9.779,0.436,-0.191,-0.163,-18.1,-17.1,-37.1,129.3,0.0,4.4,63.45,39.35337,16.21969,260.0,225.6842499,0.0,4.0,,12 / 20,4725,2017-05-30 21:24:09:017
-0.29,-0.085,9.735,-0.708,0.0,9.793,0.313,0.014,-0.095,-18.2,-17.3,-37.1,129.3,0.0,4.4,63.45,39.35337,16.21969,260.0,225.6842499,0.0,4.0,,12 / 20,4735,2017-05-30 21:24:09:027
-0.29,-0.085,9.735,-0.708,0.0,9.793,0.313,0.014,-0.095,-18.2,-17.3,-37.1,129.3,0.0,4.4,63.45,39.35337,16.21969,260.0,225.6842499,0.0,4.0,,12 / 20,4745,2017-05-30 21:24:09:037
-0.29,-0.162,9.772,-0.681,0.0,9.793,0.395,-0.082,-0.054,-17.9,-17.3,-37.4,129.5,0.0,4.1,63.45,39.35337,16.21969,260.0,225.6842499,0.0,4.0,,12 / 20,4755,2017-05-30 21:24:09:047
-0.29,-0.162,9.772,-0.681,0.0,9.793,0.395,-0.082,-0.054,-17.9,-17.3,-37.4,129.5,0.0,4.1,63.45,39.35337,16.21969,260.0,225.6842499,0.0,4.0,,12 / 20,4764,2017-05-30 21:24:09:056
-0.29,-0.162,9.772,-0.681,0.0,9.793,0.395,-0.082,-0.054,-17.9,-17.3,-37.4,129.5,0.0,4.1,63.45,39.35337,16.21969,260.0,225.6842499,0.0,4.0,,12 / 20,4774,2017-05-30 21:24:09:066
-0.434,-0.124,9.809,-0.64,0.0,9.793,0.354,-0.15,-0.027,-17.9,-17.9,-37.7,129.5,0.0,4.1,63.45,39.35337,16.21969,260.0,225.6842499,0.0,4.0,,12 / 20,4785,2017-05-30 21:24:09:077
-0.434,-0.124,9.809,-0.64,0.0,9.793,0.354,-0.15,-0.027,-17.9,-17.9,-37.7,129.5,0.0,4.1,63.45,39.35337,16.21969,260.0,225.6842499,0.0,4.0,,12 / 20,4795,2017-05-30 21:24:09:087
-0.692,-0.124,9.529,-0.586,-0.014,9.793,0.163,-0.109,0.014,-18.1,-18.6,-37.8,132.9,0.0,3.7,63.45,39.35337,16.21969,260.0,225.6842499,0.0,4.0,,12 / 20,4805,2017-05-30 21:24:09:097
-0.692,-0.124,9.529,-0.586,-0.014,9.793,0.163,-0.109,0.014,-18.1,-18.6,-37.8,132.9,0.0,3.7,63.45,39.35337,16.21969,260.0,225.6842499,0.0,4.0,,12 / 20,4815,2017-05-30 21:24:09:107
-0.692,-0.124,9.529,-0.586,-0.014,9.793,0.163,-0.109,0.014,-18.1,-18.6,-37.8,132.9,0.0,3.7,63.45,39.35337,16.21969,260.0,225.6842499,0.0,4.0,,12 / 20,4825,2017-05-30 21:24:09:117
-0.692,-0.124,9.529,-0.586,-0.014,9.793,0.163,-0.109,0.014,-18.1,-18.6,-37.8,132.9,0.0,3.7,63.45,39.35337,16.21969,260.0,225.6842499,0.0,4.0,,12 / 20,4835,2017-05-30 21:24:09:127
-0.692,-0.124,9.529,-0.586,-0.014,9.793,0.163,-0.109,0.014,-18.1,-18.6,-37.8,132.9,0.0,3.7,63.45,39.35337,16.21969,260.0,225.6842499,0.0,4.0,,12 / 20,4845,2017-05-30 21:24:09:137
-0.874,0.011,9.912,-0.558,-0.027,9.793,0.245,-0.054,0.068,-18.3,-18.4,-37.5,131.8,0.1,3.4,63.45,39.35337,16.21969,260.0,225.6842499,0.0,4.0,,12 / 20,4856,2017-05-30 21:24:09:148
-0.874,0.011,9.912,-0.558,-0.027,9.793,0.245,-0.054,0.068,-18.3,-18.4,-37.5,131.8,0.1,3.4,63.45,39.35337,16.21969,260.0,225.6842499,0.0,4.0,,12 / 20,4865,2017-05-30 21:24:09:157
-0.874,0.011,9.912,-0.558,-0.027,9.793,0.245,-0.054,0.068,-18.3,-18.4,-37.5,131.8,0.1,3.4,63.45,39.35337,16.21969,260.0,225.6842499,0.0,4.0,,12 / 20,4875,2017-05-30 21:24:09:167
-0.271,0.087,10.323,-0.518,-0.095,9.793,0.586,0.15,-0.054,-18.4,-17.5,-37.8,131.8,0.1,3.4,61.13,39.35337,16.21969,260.0,225.6842499,0.0,4.0,,12 / 20,4884,2017-05-30 21:24:09:176
-0.271,0.087,10.323,-0.518,-0.095,9.793,0.586,0.15,-0.054,-18.4,-17.5,-37.8,131.8,0.1,3.4,61.13,39.35337,16.21969,260.0,225.6842499,0.0,4.0,,12 / 20,4895,2017-05-30 21:24:09:187
-0.032,0.02,9.529,-0.518,-0.095,9.793,0.259,0.177,0.531,-18.6,-17.5,-38.6,129.5,0.6,3.0,61.13,39.35337,16.21969,260.0,225.6842499,0.0,4.0,,12 / 20,4905,2017-05-30 21:24:09:197
-0.166,0.145,9.978,-0.504,-0.095,9.793,0.477,0.109,-0.259,-18.6,-17.2,-38.9,129.5,0.6,3.0,61.13,39.35337,16.21969,260.0,225.6842499,0.0,4.0,,12 / 20,4914,2017-05-30 21:24:09:206
-0.166,0.145,9.978,-0.504,-0.095,9.793,0.477,0.109,-0.259,-18.6,-17.2,-38.9,129.5,0.6,3.0,61.13,39.35337,16.21969,260.0,225.6842499,0.0,4.0,,12 / 20,4925,2017-05-30 21:24:09:217
-0.166,0.145,9.978,-0.504,-0.095,9.793,0.477,0.109,-0.259,-18.6,-17.2,-38.9,129.5,0.6,3.0,61.13,39.35337,16.21969,260.0,225.6842499,0.0,4.0,,12 / 20,4934,2017-05-30 21:24:09:226
-0.683,0.509,9.903,-0.504,-0.095,9.793,0.014,0.477,-0.218,-18.6,-17.2,-38.3,129.7,0.6,2.9,61.13,39.35337,16.21969,260.0,225.6842499,0.0,4.0,,12 / 20,4945,2017-05-30 21:24:09:237
-0.3,0.24,10.277,-0.49,-0.068,9.807,-0.191,0.572,0.095,-19.1,-17.0,-37.6,129.7,0.6,2.9,61.13,39.35337,16.21969,260.0,225.6842499,0.0,4.0,,12 / 20,4955,2017-05-30 21:24:09:247
-0.3,0.24,10.277,-0.49,-0.068,9.807,-0.191,0.572,0.095,-19.1,-17.0,-37.6,129.7,0.6,2.9,61.13,39.35337,16.21969,260.0,225.6842499,0.0,4.0,,12 / 20,4965,2017-05-30 21:24:09:257
-0.3,0.001,9.884,-0.477,-0.027,9.807,0.218,0.191,0.354,-18.7,-16.8,-37.4,129.7,0.6,2.9,61.13,39.35337,16.21969,260.0,225.6842499,0.0,4.0,,12 / 20,4974,2017-05-30 21:24:09:266
0.122,0.068,9.781,-0.477,-0.027,9.807,0.218,0.191,0.354,-18.7,-16.8,-37.4,129.7,0.6,2.9,61.13,39.35337,16.21969,260.0,225.6842499,0.0,4.0,,12 / 20,4984,2017-05-30 21:24:09:276
0.122,0.068,9.781,-0.477,-0.027,9.807,0.218,0.191,0.354,-18.7,-16.8,-37.4,129.7,0.6,2.9,61.13,39.35337,16.21969,260.0,225.6842499,0.0,4.0,,12 / 20,4995,2017-05-30 21:24:09:287
0.074,0.489,9.436,-0.477,0.0,9.807,0.586,0.054,-0.027,-18.6,-16.7,-37.8,129.4,0.2,2.8,61.13,39.35337,16.21969,260.0,225.6842499,0.0,4.0,,12 / 20,5004,2017-05-30 21:24:09:296
0.074,0.489,9.436,-0.477,0.0,9.807,0.586,0.054,-0.027,-18.6,-16.7,-37.8,129.4,0.2,2.8,61.13,39.35337,16.21969,260.0,225.6842499,0.0,4.0,,12 / 20,5014,2017-05-30 21:24:09:306
-0.041,0.422,9.417,-0.463,0.0,9.807,0.531,0.477,-0.368,-18.5,-16.4,-38.0,129.4,0.2,2.8,61.13,39.35337,16.21969,260.0,225.6842499,0.0,4.0,,12 / 20,5025,2017-05-30 21:24:09:317
-0.041,0.422,9.417,-0.463,0.0,9.807,0.531,0.477,-0.368,-18.5,-16.4,-38.0,129.4,0.2,2.8,61.13,39.35337,16.21969,260.0,225.6842499,0.0,4.0,,12 / 20,5034,2017-05-30 21:24:09:326
-0.041,0.422,9.417,-0.463,0.0,9.807,0.531,0.477,-0.368,-18.5,-16.4,-38.0,129.4,0.2,2.8,61.13,39.35337,16.21969,260.0,225.6842499,0.0,4.0,,12 / 20,5044,2017-05-30 21:24:09:336
-0.472,0.03,10.006,-0.422,0.068,9.807,-0.027,0.3,0.054,-18.8,-16.9,-38.3,129.3,0.0,2.7,61.13,39.35337,16.21969,260.0,225.6842499,0.0,4.0,,12 / 20,5054,2017-05-30 21:24:09:346
-0.472,0.03,10.006,-0.422,0.068,9.807,-0.027,0.3,0.054,-18.8,-16.9,-38.3,129.3,0.0,2.7,61.13,39.35337,16.21969,260.0,225.6842499,0.0,4.0,,12 / 20,5064,2017-05-30 21:24:09:356
-0.472,0.03,10.006,-0.422,0.068,9.807,-0.027,0.3,0.054,-18.8,-16.9,-38.3,129.3,0.0,2.7,61.13,39.35337,16.21969,260.0,225.6842499,0.0,4.0,,12 / 20,5074,2017-05-30 21:24:09:366
0.131,-0.162,9.632,-0.395,0.095,9.807,-0.068,-0.068,0.204,-18.8,-17.5,-38.2,129.3,0.0,2.7,61.13,39.35337,16.21969,260.0,225.6842499,0.0,4.0,,12 / 20,5084,2017-05-30 21:24:09:376
0.131,-0.162,9.632,-0.395,0.095,9.807,-0.068,-0.068,0.204,-18.8,-17.5,-38.2,129.3,0.0,2.7,61.13,39.35337,16.21969,260.0,225.6842499,0.0,4.0,,12 / 20,5095,2017-05-30 21:24:09:387
0.122,0.279,9.436,-0.327,0.163,9.807,0.354,0.0,-0.599,-19.1,-17.8,-37.7,130.7,-0.6,2.3,61.13,39.35337,16.21969,260.0,225.6842499,0.0,4.0,,12 / 20,5105,2017-05-30 21:24:09:397
0.122,0.279,9.436,-0.327,0.163,9.807,0.354,0.0,-0.599,-19.1,-17.8,-37.7,130.7,-0.6,2.3,61.13,39.35337,16.21969,260.0,225.6842499,0.0,4.0,,12 / 20,5115,2017-05-30 21:24:09:407
-0.252,0.001,9.968,-0.3,0.163,9.807,0.409,0.109,-0.368,-19.0,-17.8,-37.9,130.7,-0.6,2.3,61.13,39.35337,16.21969,260.0,225.6842499,0.0,4.0,,12 / 20,5124,2017-05-30 21:24:09:416
-0.252,0.001,9.968,-0.286,0.177,9.807,0.041,-0.177,0.163,-18.3,-17.4,-38.0,130.5,-1.0,1.8,61.13,39.35337,16.21969,260.0,225.6842499,0.0,4.0,,12 / 20,5135,2017-05-30 21:24:09:427
-0.003,-0.344,10.258,-0.286,0.177,9.807,0.041,-0.177,0.163,-18.3,-17.4,-38.0,130.5,-1.0,1.8,61.13,39.35337,16.21969,260.0,225.6842499,0.0,4.0,,12 / 20,5144,2017-05-30 21:24:09:436
-0.003,-0.344,10.258,-0.286,0.177,9.807,0.041,-0.177,0.163,-18.3,-17.4,-38.0,130.5,-1.0,1.8,61.13,39.35337,16.21969,260.0,225.6842499,0.0,4.0,,12 / 20,5154,2017-05-30 21:24:09:446
0.17,-0.44,9.333,-0.272,0.177,9.807,0.272,-0.518,0.449,-18.8,-17.8,-37.4,130.5,-1.0,1.8,61.13,39.35337,16.21969,260.0,225.6842499,0.0,4.0,,12 / 20,5165,2017-05-30 21:24:09:457
0.17,-0.44,9.333,-0.245,0.177,9.807,0.409,-0.613,-0.477,-18.6,-17.4,-37.9,129.1,-1.0,1.6,61.13,39.35337,16.21969,260.0,225.6842499,0.0,4.0,,12 / 20,5175,2017-05-30 21:24:09:467
0.055,-0.162,9.408,-0.245,0.177,9.807,0.409,-0.613,-0.477,-18.6,-17.4,-37.9,129.1,-1.0,1.6,61.13,39.35337,16.21969,260.0,225.6842499,0.0,4.0,,12 / 20,5186,2017-05-30 21:24:09:478
0.055,-0.162,9.408,-0.245,0.177,9.807,0.409,-0.613,-0.477,-18.6,-17.4,-37.9,129.1,-1.0,1.6,61.13,39.35337,16.21969,260.0,225.6842499,0.0,4.0,,12 / 20,5195,2017-05-30 21:24:09:487
-0.108,-0.344,10.024,-0.204,0.163,9.807,0.259,-0.313,-0.395,-18.5,-16.7,-38.3,129.1,-1.0,1.6,61.13,39.35337,16.21969,260.0,225.6842499,0.0,4.0,,12 / 20,5209,2017-05-30 21:24:09:501
-0.108,-0.344,10.024,-0.204,0.163,9.807,0.259,-0.313,-0.395,-18.5,-16.7,-38.3,129.1,-1.0,1.6,61.13,39.35337,16.21969,260.0,225.6842499,0.0,4.0,,12 / 20,5215,2017-05-30 21:24:09:507
-0.137,-0.612,10.389,-0.15,0.109,9.807,0.054,-0.449,0.218,-19.0,-16.8,-38.3,129.6,-1.0,1.2,55.38,39.35337,16.21969,260.0,225.6842499,0.0,4.0,,12 / 20,5224,2017-05-30 21:24:09:516
-0.137,-0.612,10.389,-0.15,0.109,9.807,0.054,-0.449,0.218,-19.0,-16.8,-38.3,129.6,-1.0,1.2,55.38,39.35337,16.21969,260.0,225.6842499,0.0,4.0,,12 / 20,5235,2017-05-30 21:24:09:527
0.122,-0.43,9.8,-0.123,0.068,9.807,-0.014,-0.667,0.586,-18.7,-16.4,-38.6,129.6,-1.0,1.2,55.38,39.35337,16.21969,260.0,225.6842499,0.0,4.0,,12 / 20,5244,2017-05-30 21:24:09:536
0.122,-0.43,9.8,-0.123,0.068,9.807,-0.014,-0.667,0.586,-18.7,-16.4,-38.6,129.6,-1.0,1.2,55.38,39.35337,16.21969,260.0,225.6842499,0.0,4.0,,12 / 20,5254,2017-05-30 21:24:09:546
0.122,-0.43,9.8,-0.123,0.068,9.807,-0.014,-0.667,0.586,-18.7,-16.4,-38.6,129.6,-1.0,1.2,55.38,39.35337,16.21969,260.0,225.6842499,0.0,4.0,,12 / 20,5265,2017-05-30 21:24:09:557
-0.147,0.011,9.286,-0.109,0.0,9.807,0.449,-0.354,-0.313,-18.8,-16.8,-38.3,130.7,-0.4,0.7,55.38,39.35337,16.21969,260.0,225.6842499,0.0,4.0,,12 / 20,5275,2017-05-30 21:24:09:567
-0.147,0.011,9.286,-0.109,0.0,9.807,0.449,-0.354,-0.313,-18.8,-16.8,-38.3,130.7,-0.4,0.7,55.38,39.35337,16.21969,260.0,225.6842499,0.0,4.0,,12 / 20,5284,2017-05-30 21:24:09:576
-0.501,-0.229,10.099,-0.095,-0.082,9.807,-0.041,0.082,-0.518,-18.9,-16.8,-38.0,130.7,-0.4,0.7,55.38,39.35337,16.21969,260.0,225.6842499,0.0,4.0,,12 / 20,5295,2017-05-30 21:24:09:587
0.074,-0.047,9.95,-0.095,-0.109,9.807,0.341,-0.109,0.177,-18.9,-16.8,-37.9,131.8,0.5,0.6,55.38,39.35337,16.21969,260.0,225.6842499,0.0,4.0,,12 / 20,5305,2017-05-30 21:24:09:597
0.074,-0.047,9.95,-0.095,-0.109,9.807,0.341,-0.109,0.177,-18.9,-16.8,-37.9,131.8,0.5,0.6,55.38,39.35337,16.21969,260.0,225.6842499,0.0,4.0,,12 / 20,5315,2017-05-30 21:24:09:607
0.074,-0.047,9.95,-0.095,-0.109,9.807,0.341,-0.109,0.177,-18.9,-16.8,-37.9,131.8,0.5,0.6,55.38,39.35337,16.21969,260.0,225.6842499,0.0,4.0,,12 / 20,5325,2017-05-30 21:24:09:617
0.802,0.307,9.707,-0.095,-0.163,9.807,0.191,0.068,0.327,-18.8,-16.5,-37.6,131.8,0.5,0.6,55.38,39.35337,16.21969,260.0,225.6842499,0.0,4.0,,12 / 20,5335,2017-05-30 21:24:09:627
0.802,0.307,9.707,-0.095,-0.163,9.807,0.191,0.068,0.327,-18.8,-16.5,-37.6,131.8,0.5,0.6,55.38,39.35337,16.21969,260.0,225.6842499,0.0,4.0,,12 / 20,5345,2017-05-30 21:24:09:637
0.524,0.48,9.034,-0.095,-0.163,9.807,0.885,0.463,-0.095,-18.7,-16.2,-37.8,130.6,1.0,0.6,55.38,39.35337,16.21969,260.0,225.6842499,0.0,4.0,,12 / 20,5355,2017-05-30 21:24:09:647
0.524,0.48,9.034,-0.095,-0.163,9.807,0.885,0.463,-0.095,-18.7,-16.2,-37.8,130.6,1.0,0.6,55.38,39.35337,16.21969,260.0,225.6842499,0.0,4.0,,12 / 20,5365,2017-05-30 21:24:09:657
0.524,0.48,9.034,-0.095,-0.163,9.807,0.885,0.463,-0.095,-18.7,-16.2,-37.8,130.6,1.0,0.6,55.38,39.35337,16.21969,260.0,225.6842499,0.0,4.0,,12 / 20,5375,2017-05-30 21:24:09:667
0.294,0.365,9.51,-0.095,-0.163,9.807,0.613,0.64,-0.776,-18.6,-16.2,-37.9,130.6,1.0,0.6,55.38,39.35337,16.21969,260.0,225.6842499,0.0,4.0,,12 / 20,5384,2017-05-30 21:24:09:676
0.323,0.288,9.548,-0.095,-0.163,9.807,0.381,0.518,-0.3,-18.6,-16.1,-38.3,130.6,1.0,0.6,55.38,39.35337,16.21969,260.0,225.6842499,0.0,4.0,,12 / 20,5394,2017-05-30 21:24:09:686
0.323,0.288,9.548,-0.095,-0.163,9.807,0.381,0.518,-0.3,-18.6,-16.1,-38.3,130.6,1.0,0.6,55.38,39.35337,16.21969,260.0,225.6842499,0.0,4.0,,12 / 20,5405,2017-05-30 21:24:09:697
0.304,0.298,9.268,-0.041,-0.177,9.807,0.354,0.463,-0.259,-19.0,-16.6,-38.6,130.6,1.0,0.6,55.38,39.35337,16.21969,260.0,225.6842499,0.0,4.0,,12 / 20,5415,2017-05-30 21:24:09:707
0.304,0.298,9.268,-0.041,-0.177,9.807,0.354,0.463,-0.259,-19.0,-16.6,-38.6,130.6,1.0,0.6,55.38,39.35337,16.21969,260.0,225.6842499,0.0,4.0,,12 / 20,5425,2017-05-30 21:24:09:717
0.304,0.298,9.268,-0.041,-0.177,9.807,0.354,0.463,-0.259,-19.0,-16.6,-38.6,130.6,1.0,0.6,55.38,39.35337,16.21969,260.0,225.6842499,0.0,4.0,,12 / 20,5435,2017-05-30 21:24:09:727
0.457,0.25,8.922,-0.041,-0.191,9.807,0.341,0.477,-0.545,-18.9,-16.4,-38.8,131.1,1.0,0.2,55.38,39.35337,16.21969,260.0,225.6842499,0.0,4.0,,12 / 20,5445,2017-05-30 21:24:09:737
0.457,0.25,8.922,-0.041,-0.191,9.807,0.341,0.477,-0.545,-18.9,-16.4,-38.8,131.1,1.0,0.2,55.38,39.35337,16.21969,260.0,225.6842499,0.0,4.0,,12 / 20,5455,2017-05-30 21:24:09:747
0.361,0.298,9.417,-0.014,-0.136,9.807,0.381,0.558,-0.054,-19.0,-16.4,-38.8,131.1,1.0,0.2,55.38,39.35337,16.21967,260.0,225.6842499,4.0,4.0,223.9,9 / 19,5465,2017-05-30 21:24:09:757
0.361,0.298,9.417,-0.014,-0.136,9.807,0.381,0.558,-0.054,-19.0,-16.4,-38.8,131.1,1.0,0.2,55.38,39.35337,16.21967,260.0,225.6842499,4.0,4.0,223.9,9 / 19,5474,2017-05-30 21:24:09:766
-0.032,0.058,9.688,0.027,-0.095,9.807,0.054,0.313,0.354,-19.6,-16.3,-39.2,129.5,0.8,0.1,55.38,39.35337,16.21967,260.0,225.6842499,4.0,4.0,223.9,9 / 19,5485,2017-05-30 21:24:09:777
-0.032,0.058,9.688,0.027,-0.095,9.807,0.054,0.313,0.354,-19.6,-16.3,-39.2,129.5,0.8,0.1,55.38,39.35337,16.21967,260.0,225.6842499,4.0,4.0,223.9,9 / 19,5494,2017-05-30 21:24:09:786
-0.032,0.058,9.688,0.027,-0.095,9.807,0.054,0.313,0.354,-19.6,-16.3,-39.2,129.5,0.8,0.1,55.38,39.35337,16.21967,260.0,225.6842499,4.0,4.0,223.9,9 / 19,5505,2017-05-30 21:24:09:797
-0.032,0.058,9.688,0.027,-0.095,9.807,0.054,0.313,0.354,-19.6,-16.3,-39.2,129.5,0.8,0.1,55.38,39.35337,16.21967,260.0,225.6842499,4.0,4.0,223.9,9 / 19,5515,2017-05-30 21:24:09:807
0.735,0.489,9.482,0.082,0.014,9.807,0.599,0.409,-0.259,-19.7,-16.0,-39.0,129.5,0.6,-0.2,55.38,39.35337,16.21967,260.0,225.6842499,4.0,4.0,223.9,9 / 19,5524,2017-05-30 21:24:09:816
0.304,0.221,9.968,0.123,0.095,9.807,0.518,0.218,-0.64,-19.6,-15.8,-38.9,129.5,0.6,-0.2,55.38,39.35337,16.21967,260.0,225.6842499,4.0,4.0,223.9,9 / 19,5534,2017-05-30 21:24:09:826
0.304,0.221,9.968,0.123,0.095,9.807,0.518,0.218,-0.64,-19.6,-15.8,-38.9,129.5,0.6,-0.2,55.38,39.35337,16.21967,260.0,225.6842499,4.0,4.0,223.9,9 / 19,5544,2017-05-30 21:24:09:836
0.055,0.039,9.978,0.136,0.123,9.807,0.163,0.095,0.163,-19.4,-15.9,-39.0,129.5,0.6,-0.2,57.31,39.35337,16.21967,260.0,225.6842499,4.0,4.0,223.9,9 / 19,5554,2017-05-30 21:24:09:846
0.055,0.039,9.978,0.136,0.123,9.807,0.163,0.095,0.163,-19.4,-15.9,-39.0,129.5,0.6,-0.2,57.31,39.35337,16.21967,260.0,225.6842499,4.0,4.0,223.9,9 / 19,5564,2017-05-30 21:24:09:856
0.15,0.097,9.37,0.163,0.15,9.807,-0.109,-0.123,0.177,-19.1,-15.8,-39.2,130.0,-0.7,-0.8,57.31,39.35337,16.21967,260.0,225.6842499,4.0,4.0,223.9,9 / 19,5575,2017-05-30 21:24:09:867
0.15,0.097,9.37,0.163,0.15,9.807,-0.109,-0.123,0.177,-19.1,-15.8,-39.2,130.0,-0.7,-0.8,57.31,39.35337,16.21967,260.0,225.6842499,4.0,4.0,223.9,9 / 19,5585,2017-05-30 21:24:09:877
0.859,0.317,9.006,0.163,0.15,9.807,-0.014,-0.054,-0.436,-19.3,-16.0,-38.6,130.0,-0.7,-0.8,57.31,39.35337,16.21967,260.0,225.6842499,4.0,4.0,223.9,9 / 19,5595,2017-05-30 21:24:09:887
0.984,0.556,9.23,0.163,0.15,9.807,-0.014,-0.054,-0.436,-19.3,-16.0,-38.6,130.0,-0.7,-0.8,57.31,39.35337,16.21967,260.0,225.6842499,4.0,4.0,223.9,9 / 19,5605,2017-05-30 21:24:09:897
0.984,0.556,9.23,0.163,0.15,9.807,-0.014,-0.054,-0.436,-19.3,-16.0,-38.6,130.0,-0.7,-0.8,57.31,39.35337,16.21967,260.0,225.6842499,4.0,4.0,223.9,9 / 19,5614,2017-05-30 21:24:09:906
-0.012,-0.219,9.753,0.218,0.191,9.807,-0.177,0.0,-0.327,-19.4,-16.0,-39.2,130.0,-0.9,-1.0,57.31,39.35337,16.21967,260.0,225.6842499,4.0,4.0,223.9,9 / 19,5625,2017-05-30 21:24:09:917
-0.012,-0.219,9.753,0.218,0.191,9.807,-0.177,0.0,-0.327,-19.4,-16.0,-39.2,130.0,-0.9,-1.0,57.31,39.35337,16.21967,260.0,225.6842499,4.0,4.0,223.9,9 / 19,5634,2017-05-30 21:24:09:926
0.17,-0.219,9.632,0.286,0.232,9.807,-0.286,-0.449,-0.054,-19.3,-16.1,-39.0,130.0,-0.9,-1.0,57.31,39.35337,16.21967,260.0,225.6842499,4.0,4.0,223.9,9 / 19,5645,2017-05-30 21:24:09:937
0.849,0.499,9.688,0.354,0.272,9.807,-0.191,-0.49,-0.177,-19.2,-15.8,-39.3,130.2,-1.4,-1.7,57.31,39.35337,16.21967,260.0,225.6842499,4.0,4.0,223.9,9 / 19,5654,2017-05-30 21:24:09:946
0.849,0.499,9.688,0.354,0.272,9.807,-0.191,-0.49,-0.177,-19.2,-15.8,-39.3,130.2,-1.4,-1.7,57.31,39.35337,16.21967,260.0,225.6842499,4.0,4.0,223.9,9 / 19,5665,2017-05-30 21:24:09:957
0.849,0.499,9.688,0.354,0.272,9.807,-0.191,-0.49,-0.177,-19.2,-15.7,-39.5,130.2,-1.4,-1.7,57.31,39.35337,16.21967,260.0,225.6842499,4.0,4.0,223.9,9 / 19,5674,2017-05-30 21:24:09:966
0.409,0.24,9.445,0.395,0.286,9.807,0.449,0.204,-0.123,-19.2,-15.7,-39.5,130.2,-1.4,-1.7,57.31,39.35337,16.21967,260.0,225.6842499,4.0,4.0,223.9,9 / 19,5684,2017-05-30 21:24:09:976
1.089,0.355,9.576,0.449,0.3,9.793,0.272,-0.054,-0.436,-19.7,-15.5,-38.9,126.9,-1.7,-2.3,57.31,39.35337,16.21967,260.0,225.6842499,4.0,4.0,223.9,9 / 19,5695,2017-05-30 21:24:09:987
1.089,0.355,9.576,0.449,0.3,9.793,0.272,-0.054,-0.436,-19.7,-15.5,-38.9,126.9,-1.7,-2.3,57.31,39.35337,16.21967,260.0,225.6842499,4.0,4.0,223.9,9 / 19,5704,2017-05-30 21:24:09:996
-0.3,-0.315,9.735,0.449,0.3,9.793,-0.49,-0.3,-0.259,-20.0,-15.5,-38.9,126.9,-1.7,-2.3,57.31,39.35337,16.21967,260.0,225.6842499,4.0,4.0,223.9,9 / 19,5714,2017-05-30 21:24:10:006
-0.3,-0.315,9.735,0.449,0.3,9.793,-0.49,-0.3,-0.259,-20.0,-15.5,-38.9,126.9,-1.7,-2.3,57.31,39.35337,16.21967,260.0,225.6842499,4.0,4.0,223.9,9 / 19,5724,2017-05-30 21:24:10:016
0.093,-0.191,9.753,0.449,0.3,9.793,-0.749,-0.613,-0.054,-19.7,-15.6,-39.1,129.1,-1.8,-2.6,57.31,39.35337,16.21967,260.0,225.6842499,4.0,4.0,223.9,9 / 19,5735,2017-05-30 21:24:10:027
0.093,-0.191,9.753,0.449,0.3,9.793,-0.749,-0.613,-0.054,-19.7,-15.6,-39.1,129.1,-1.8,-2.6,57.31,39.35337,16.21967,260.0,225.6842499,4.0,4.0,223.9,9 / 19,5745,2017-05-30 21:24:10:037
0.17,0.03,9.576,0.477,0.272,9.793,-0.395,-0.463,-0.041,-19.8,-15.8,-38.9,129.1,-1.8,-2.6,57.31,39.35337,16.21967,260.0,225.6842499,4.0,4.0,223.9,9 / 19,5755,2017-05-30 21:24:10:047
0.17,0.03,9.576,0.477,0.272,9.793,-0.395,-0.463,-0.041,-19.8,-15.8,-38.9,129.1,-1.8,-2.6,57.31,39.35337,16.21967,260.0,225.6842499,4.0,4.0,223.9,9 / 19,5765,2017-05-30 21:24:10:057
0.6,0.068,9.697,0.477,0.259,9.793,-0.313,-0.232,-0.218,-19.9,-15.5,-39.2,129.5,-1.6,-2.8,57.31,39.35337,16.21967,260.0,225.6842499,4.0,4.0,223.9,9 / 19,5774,2017-05-30 21:24:10:066
0.6,0.068,9.697,0.477,0.259,9.793,-0.313,-0.232,-0.218,-19.9,-15.5,-39.2,129.5,-1.6,-2.8,57.31,39.35337,16.21967,260.0,225.6842499,4.0,4.0,223.9,9 / 19,5785,2017-05-30 21:24:10:077
0.514,0.173,9.389,0.49,0.232,9.793,0.109,-0.177,-0.095,-19.9,-15.2,-39.4,129.5,-1.6,-2.8,57.31,39.35337,16.21967,260.0,225.6842499,4.0,4.0,223.9,9 / 19,5794,2017-05-30 21:24:10:086
0.514,0.317,9.342,0.49,0.204,9.793,0.014,-0.041,-0.409,-20.6,-15.4,-39.4,129.5,-1.6,-2.8,57.31,39.35337,16.21967,260.0,225.6842499,4.0,4.0,223.9,9 / 19,5805,2017-05-30 21:24:10:097
0.514,0.317,9.342,0.49,0.204,9.793,0.014,-0.041,-0.409,-20.6,-15.4,-39.4,129.5,-1.6,-2.8,57.31,39.35337,16.21967,260.0,225.6842499,4.0,4.0,223.9,9 / 19,5815,2017-05-30 21:24:10:107
-0.06,0.116,9.632,0.477,0.191,9.793,-0.368,-0.191,-0.027,-20.6,-15.4,-39.6,126.7,-1.2,-2.9,57.31,39.35337,16.21967,260.0,225.6842499,4.0,4.0,223.9,9 / 19,5824,2017-05-30 21:24:10:116
-0.06,0.116,9.632,0.477,0.191,9.793,-0.368,-0.191,-0.027,-20.6,-15.4,-39.6,126.7,-1.2,-2.9,57.31,39.35337,16.21967,260.0,225.6842499,4.0,4.0,223.9,9 / 19,5835,2017-05-30 21:24:10:127
0.15,0.192,9.641,0.463,0.191,9.807,-0.518,-0.082,-0.177,-21.2,-15.2,-39.8,126.7,-1.2,-2.9,57.31,39.35337,16.21967,260.0,225.6842499,4.0,4.0,223.9,9 / 19,5845,2017-05-30 21:24:10:137
0.15,0.192,9.641,0.463,0.191,9.807,-0.518,-0.082,-0.177,-21.2,-15.2,-39.8,126.7,-1.2,-2.9,57.31,39.35337,16.21967,260.0,225.6842499,4.0,4.0,223.9,9 / 19,5856,2017-05-30 21:24:10:148
0.428,0.413,9.38,0.463,0.191,9.807,-0.313,0.0,-0.163,-21.4,-15.8,-39.7,128.5,-1.1,-2.7,57.31,39.35337,16.21967,260.0,225.6842499,4.0,4.0,223.9,9 / 19,5865,2017-05-30 21:24:10:157
0.428,0.413,9.38,0.463,0.191,9.807,-0.313,0.0,-0.163,-21.4,-15.8,-39.7,128.5,-1.1,-2.7,57.31,39.35337,16.21967,260.0,225.6842499,4.0,4.0,223.9,9 / 19,5875,2017-05-30 21:24:10:167
0.304,0.288,9.679,0.449,0.177,9.807,-0.368,0.068,-0.109,-21.7,-15.9,-39.2,128.5,-1.1,-2.7,67.76,39.35337,16.21967,260.0,225.6842499,4.0,4.0,223.9,9 / 19,5885,2017-05-30 21:24:10:177
0.304,0.288,9.679,0.449,0.177,9.807,-0.368,0.068,-0.109,-21.7,-15.9,-39.2,128.5,-1.1,-2.7,67.76,39.35337,16.21967,260.0,225.6842499,4.0,4.0,223.9,9 / 19,5894,2017-05-30 21:24:10:186
0.227,0.451,9.492,0.422,0.177,9.807,-0.123,0.109,-0.123,-21.6,-15.7,-39.4,127.1,-1.0,-2.6,67.76,39.35337,16.21967,260.0,225.6842499,4.0,4.0,223.9,9 / 19,5904,2017-05-30 21:24:10:196
0.227,0.451,9.492,0.422,0.177,9.807,-0.123,0.109,-0.123,-21.6,-15.7,-39.4,127.1,-1.0,-2.6,67.76,39.35337,16.21967,260.0,225.6842499,4.0,4.0,223.9,9 / 19,5915,2017-05-30 21:24:10:207
0.351,0.374,9.567,0.395,0.177,9.807,-0.177,0.272,-0.313,-21.2,-16.1,-39.1,127.1,-1.0,-2.6,67.76,39.35337,16.21967,260.0,225.6842499,4.0,4.0,223.9,9 / 19,5925,2017-05-30 21:24:10:217
0.351,0.374,9.567,0.395,0.177,9.807,-0.177,0.272,-0.313,-21.2,-16.1,-39.1,127.1,-1.0,-2.6,67.76,39.35337,16.21967,260.0,225.6842499,4.0,4.0,223.9,9 / 19,5935,2017-05-30 21:24:10:227
0.888,0.671,9.454,0.368,0.204,9.807,0.354,0.341,-0.3,-20.9,-16.1,-39.1,128.2,-1.0,-2.3,67.76,39.35337,16.21967,260.0,225.6842499,4.0,4.0,223.9,9 / 19,5944,2017-05-30 21:24:10:236
0.888,0.671,9.454,0.368,0.204,9.807,0.354,0.341,-0.3,-20.9,-16.1,-39.1,128.2,-1.0,-2.3,67.76,39.35337,16.21967,260.0,225.6842499,4.0,4.0,223.9,9 / 19,5955,2017-05-30 21:24:10:247
0.888,0.671,9.454,0.368,0.204,9.807,0.354,0.341,-0.3,-20.9,-16.1,-39.1,128.2,-1.0,-2.3,67.76,39.35337,16.21967,260.0,225.6842499,4.0,4.0,223.9,9 / 19,5965,2017-05-30 21:24:10:257
0.141,0.307,9.903,0.368,0.232,9.807,-0.409,0.191,0.068,-20.5,-16.1,-39.4,128.2,-1.0,-2.3,67.76,39.35337,16.21967,260.0,225.6842499,4.0,4.0,223.9,9 / 19,5975,2017-05-30 21:24:10:267
0.141,0.307,9.903,0.368,0.232,9.807,-0.409,0.191,0.068,-20.5,-16.1,-39.4,128.2,-1.0,-2.3,67.76,39.35337,16.21967,260.0,225.6842499,4.0,4.0,223.9,9 / 19,5985,2017-05-30 21:24:10:277
1.012,0.892,9.408,0.368,0.245,9.807,-0.232,0.054,0.095,-20.8,-16.0,-39.4,127.6,-1.4,-2.1,67.76,39.35337,16.21967,260.0,225.6842499,4.0,4.0,223.9,9 / 19,5995,2017-05-30 21:24:10:287
1.137,1.016,9.389,0.368,0.259,9.807,0.64,0.627,-0.395,-21.0,-16.1,-39.4,127.6,-1.4,-2.1,67.76,39.35337,16.21967,260.0,225.6842499,4.0,4.0,223.9,9 / 19,6005,2017-05-30 21:24:10:297
1.137,1.016,9.389,0.368,0.259,9.807,0.64,0.627,-0.395,-21.0,-16.1,-39.4,127.6,-1.4,-2.1,67.76,39.35337,16.21967,260.0,225.6842499,4.0,4.0,223.9,9 / 19,6015,2017-05-30 21:24:10:307
1.137,1.016,9.389,0.368,0.259,9.807,0.64,0.627,-0.395,-21.0,-16.1,-39.4,127.6,-1.4,-2.1,67.76,39.35337,16.21967,260.0,225.6842499,4.0,4.0,223.9,9 / 19,6024,2017-05-30 21:24:10:316
0.677,0.671,9.922,0.368,0.313,9.807,-0.341,0.341,-0.027,-21.3,-16.0,-39.0,127.4,-1.5,-2.1,67.76,39.35337,16.21967,260.0,225.6842499,4.0,4.0,223.9,9 / 19,6034,2017-05-30 21:24:10:326
0.668,0.844,9.398,0.368,0.313,9.807,0.913,0.422,-0.204,-21.1,-16.0,-38.8,127.4,-1.5,-2.1,67.76,39.35337,16.21967,260.0,225.6842499,4.0,4.0,223.9,9 / 19,6045,2017-05-30 21:24:10:337
0.668,0.844,9.398,0.368,0.313,9.807,0.913,0.422,-0.204,-21.1,-16.0,-38.8,127.4,-1.5,-2.1,67.76,39.35337,16.21967,260.0,225.6842499,4.0,4.0,223.9,9 / 19,6054,2017-05-30 21:24:10:346
0.668,0.844,9.398,0.368,0.313,9.807,0.913,0.422,-0.204,-21.1,-16.0,-38.8,127.4,-1.5,-2.1,67.76,39.35337,16.21967,260.0,225.6842499,4.0,4.0,223.9,9 / 19,6064,2017-05-30 21:24:10:356
1.089,0.882,9.333,0.409,0.381,9.793,0.259,0.449,-0.395,-21.5,-16.1,-38.9,125.7,-1.8,-2.1,67.76,39.35337,16.21967,260.0,225.6842499,4.0,4.0,223.9,9 / 19,6074,2017-05-30 21:24:10:366
1.089,0.882,9.333,0.409,0.381,9.793,0.259,0.449,-0.395,-21.5,-16.1,-38.9,125.7,-1.8,-2.1,67.76,39.35337,16.21967,260.0,225.6842499,4.0,4.0,223.9,9 / 19,6084,2017-05-30 21:24:10:376
1.079,1.054,9.548,0.477,0.49,9.793,0.681,0.49,-0.027,-21.5,-15.9,-39.4,125.7,-1.8,-2.1,67.76,39.35337,16.21967,260.0,225.6842499,4.0,4.0,223.9,9 / 19,6095,2017-05-30 21:24:10:387
1.079,1.054,9.548,0.477,0.49,9.793,0.681,0.49,-0.027,-21.5,-15.9,-39.4,125.7,-1.8,-2.1,67.76,39.35337,16.21967,260.0,225.6842499,4.0,4.0,223.9,9 / 19,6105,2017-05-30 21:24:10:397
0.926,1.093,9.501,0.545,0.558,9.779,0.531,0.49,-0.232,-21.4,-15.7,-39.8,126.2,-2.9,-2.8,67.76,39.35337,16.21967,260.0,225.6842499,4.0,4.0,223.9,9 / 19,6115,2017-05-30 21:24:10:407
0.859,0.93,9.342,0.572,0.586,9.779,0.599,0.232,-0.449,-21.7,-15.8,-40.1,126.2,-2.9,-2.8,67.76,39.35337,16.21967,260.0,225.6842499,4.0,4.0,223.9,9 / 19,6125,2017-05-30 21:24:10:417
0.859,0.93,9.342,0.572,0.586,9.779,0.599,0.232,-0.449,-21.7,-15.8,-40.1,126.2,-2.9,-2.8,67.76,39.35337,16.21967,260.0,225.6842499,4.0,4.0,223.9,9 / 19,6134,2017-05-30 21:24:10:426
0.811,0.892,9.482,0.627,0.64,9.779,0.232,0.286,-0.436,-21.3,-15.4,-40.0,126.2,-2.9,-2.8,67.76,39.35337,16.21967,260.0,225.6842499,4.0,4.0,223.9,9 / 19,6145,2017-05-30 21:24:10:437
0.811,0.892,9.482,0.627,0.64,9.779,0.232,0.286,-0.436,-21.3,-15.4,-40.0,126.2,-2.9,-2.8,67.76,39.35337,16.21967,260.0,225.6842499,4.0,4.0,223.9,9 / 19,6155,2017-05-30 21:24:10:447
0.811,0.892,9.482,0.627,0.64,9.779,0.232,0.286,-0.436,-21.3,-15.4,-40.0,126.2,-2.9,-2.8,67.76,39.35337,16.21967,260.0,225.6842499,4.0,4.0,223.9,9 / 19,6165,2017-05-30 21:24:10:457
1.644,1.246,9.641,0.722,0.722,9.766,0.831,0.449,-0.027,-21.4,-15.2,-40.4,123.7,-3.7,-3.7,67.76,39.35337,16.21967,260.0,225.6842499,4.0,4.0,223.9,9 / 19,6174,2017-05-30 21:24:10:466
1.644,1.246,9.641,0.722,0.722,9.766,0.831,0.449,-0.027,-21.4,-15.2,-40.4,123.7,-3.7,-3.7,67.76,39.35337,16.21967,260.0,225.6842499,4.0,4.0,223.9,9 / 19,6184,2017-05-30 21:24:10:476
1.625,1.265,9.501,0.79,0.763,9.752,0.844,0.477,-0.109,-21.8,-15.4,-40.4,123.7,-3.7,-3.7,67.76,39.35337,16.21967,260.0,225.6842499,4.0,4.0,223.9,9 / 19,6195,2017-05-30 21:24:10:487
1.625,1.265,9.501,0.79,0.763,9.752,0.844,0.477,-0.109,-21.8,-15.4,-40.4,123.7,-3.7,-3.7,67.76,39.35337,16.21967,260.0,225.6842499,4.0,4.0,223.9,9 / 19,6205,2017-05-30 21:24:10:497
1.558,1.112,9.632,0.858,0.804,9.739,0.763,0.449,-0.232,-21.6,-15.4,-40.4,122.1,-4.5,-4.6,62.37,39.35337,16.21967,260.0,225.6842499,4.0,4.0,223.9,9 / 19,6216,2017-05-30 21:24:10:508
1.558,1.112,9.632,0.858,0.804,9.739,0.763,0.449,-0.232,-21.6,-15.4,-40.4,122.1,-4.5,-4.6,62.37,39.35337,16.21967,260.0,225.6842499,4.0,4.0,223.9,9 / 19,6225,2017-05-30 21:24:10:517
1.175,1.15,9.725,0.913,0.831,9.739,0.64,0.272,-0.109,-21.8,-15.7,-40.2,122.1,-4.5,-4.6,62.37,39.35337,16.21967,260.0,225.6842499,4.0,4.0,223.9,9 / 19,6234,2017-05-30 21:24:10:526
1.175,1.15,9.725,0.913,0.831,9.739,0.64,0.272,-0.109,-21.8,-15.7,-40.2,122.1,-4.5,-4.6,62.37,39.35337,16.21967,260.0,225.6842499,4.0,4.0,223.9,9 / 19,6245,2017-05-30 21:24:10:537
1.405,1.112,9.165,0.967,0.858,9.725,0.204,0.286,0.0,-22.1,-15.6,-39.8,124.3,-4.9,-5.4,62.37,39.35337,16.21967,260.0,225.6842499,4.0,4.0,223.9,9 / 19,6255,2017-05-30 21:24:10:547
1.405,1.112,9.165,0.967,0.858,9.725,0.204,0.286,0.0,-22.1,-15.6,-39.8,124.3,-4.9,-5.4,62.37,39.35337,16.21967,260.0,225.6842499,4.0,4.0,223.9,9 / 19,6265,2017-05-30 21:24:10:557
1.165,0.959,8.978,1.035,0.872,9.725,0.368,0.232,-0.558,-22.1,-15.6,-39.8,124.3,-4.9,-5.4,62.37,39.35337,16.21967,260.0,225.6842499,4.0,4.0,223.9,9 / 19,6275,2017-05-30 21:24:10:567
1.051,0.566,9.389,1.076,0.885,9.711,0.082,0.068,-0.735,-22.4,-15.8,-39.8,124.3,-4.9,-5.4,62.37,39.35337,16.21967,260.0,225.6842499,4.0,4.0,223.9,9 / 19,6285,2017-05-30 21:24:10:577
1.051,0.566,9.389,1.076,0.885,9.711,0.082,0.068,-0.735,-22.4,-15.8,-39.8,124.3,-4.9,-5.4,62.37,39.35337,16.21967,260.0,225.6842499,4.0,4.0,223.9,9 / 19,6295,2017-05-30 21:24:10:587
1.051,0.566,9.389,1.076,0.885,9.711,0.082,0.068,-0.735,-22.4,-15.8,-39.8,124.3,-4.9,-5.4,62.37,39.35337,16.21967,260.0,225.6842499,4.0,4.0,223.9,9 / 19,6305,2017-05-30 21:24:10:597
1.798,0.949,9.903,1.103,0.899,9.711,0.341,0.095,-0.204,-22.4,-15.8,-39.8,124.8,-5.2,-6.3,62.37,39.35337,16.21967,260.0,225.6842499,4.0,4.0,223.9,9 / 19,6315,2017-05-30 21:24:10:607
1.903,0.834,9.735,1.171,0.926,9.698,0.627,0.014,0.204,-22.1,-15.5,-40.0,124.8,-5.2,-6.3,62.37,39.35337,16.21967,260.0,225.6842499,4.0,4.0,223.9,9 / 19,6325,2017-05-30 21:24:10:617
1.903,0.834,9.735,1.171,0.926,9.698,0.627,0.014,0.204,-22.1,-15.5,-40.0,124.8,-5.2,-6.3,62.37,39.35337,16.21967,260.0,225.6842499,4.0,4.0,223.9,9 / 19,6334,2017-05-30 21:24:10:626
1.625,1.054,9.352,1.212,0.94,9.698,0.681,-0.109,0.041,-21.6,-14.7,-40.0,122.7,-5.4,-6.9,62.37,39.35337,16.21967,260.0,225.6842499,4.0,4.0,223.9,9 / 19,6345,2017-05-30 21:24:10:637
1.625,1.054,9.352,1.212,0.94,9.698,0.681,-0.109,0.041,-21.6,-14.7,-40.0,122.7,-5.4,-6.9,62.37,39.35337,16.21967,260.0,225.6842499,4.0,4.0,223.9,9 / 19,6354,2017-05-30 21:24:10:646
1.347,0.403,9.333,1.239,0.94,9.684,0.381,0.109,-0.327,-21.8,-14.3,-40.0,122.7,-5.4,-6.9,62.37,39.35337,16.21967,260.0,225.6842499,4.0,4.0,223.9,9 / 19,6364,2017-05-30 21:24:10:656
1.347,0.403,9.333,1.239,0.94,9.684,0.381,0.109,-0.327,-21.8,-14.3,-40.0,122.7,-5.4,-6.9,62.37,39.35337,16.21967,260.0,225.6842499,4.0,4.0,223.9,9 / 19,6375,2017-05-30 21:24:10:667
1.338,0.662,9.95,1.253,0.94,9.684,0.313,-0.082,-0.082,-22.0,-13.9,-40.0,120.5,-5.5,-7.3,62.37,39.35337,16.21967,260.0,225.6842499,4.0,4.0,223.9,9 / 19,6385,2017-05-30 21:24:10:677
1.338,0.662,9.95,1.253,0.94,9.684,0.313,-0.082,-0.082,-22.0,-13.9,-40.0,120.5,-5.5,-7.3,62.37,39.35337,16.21967,260.0,225.6842499,4.0,4.0,223.9,9 / 19,6395,2017-05-30 21:24:10:687
1.118,0.959,10.108,1.28,0.926,9.684,0.054,-0.272,0.259,-22.2,-14.3,-40.2,120.5,-5.5,-7.3,62.37,39.35337,16.21967,260.0,225.6842499,4.0,4.0,223.9,9 / 19,6406,2017-05-30 21:24:10:698
1.118,0.959,10.108,1.28,0.926,9.684,0.054,-0.272,0.259,-22.2,-14.3,-40.2,120.5,-5.5,-7.3,62.37,39.35337,16.21967,260.0,225.6842499,4.0,4.0,223.9,9 / 19,6415,2017-05-30 21:24:10:707
1.118,0.959,10.108,1.28,0.926,9.684,0.054,-0.272,0.259,-22.2,-14.3,-40.2,120.5,-5.5,-7.3,62.37,39.35337,16.21967,260.0,225.6842499,4.0,4.0,223.9,9 / 19,6424,2017-05-30 21:24:10:716
0.754,1.457,9.445,1.294,0.899,9.684,-0.436,0.163,-0.041,-22.7,-15.0,-40.4,121.8,-5.4,-7.5,62.37,39.35337,16.21967,260.0,225.6842499,4.0,4.0,223.9,9 / 19,6436,2017-05-30 21:24:10:728
0.754,1.457,9.445,1.294,0.899,9.684,-0.436,0.163,-0.041,-22.7,-15.0,-40.4,121.8,-5.4,-7.5,62.37,39.35337,16.21967,260.0,225.6842499,4.0,4.0,223.9,9 / 19,6444,2017-05-30 21:24:10:736
0.754,1.457,9.445,1.294,0.899,9.684,-0.436,0.163,-0.041,-22.7,-15.0,-40.4,121.8,-5.4,-7.5,62.37,39.35337,16.21967,260.0,225.6842499,4.0,4.0,223.9,9 / 19,6455,2017-05-30 21:24:10:747
0.849,1.399,9.791,1.294,0.872,9.684,-0.545,0.586,-0.245,-22.7,-14.8,-40.2,121.8,-5.4,-7.5,62.37,39.35335,16.21967,260.0,225.6842499,5.0,3.0,214.7,10 / 20,6465,2017-05-30 21:24:10:757
0.849,1.399,9.791,1.294,0.872,9.684,-0.545,0.586,-0.245,-22.7,-14.8,-40.2,121.8,-5.4,-7.5,62.37,39.35335,16.21967,260.0,225.6842499,5.0,3.0,214.7,10 / 20,6475,2017-05-30 21:24:10:767
1.242,1.897,10.08,1.28,0.885,9.684,0.109,0.763,0.409,-22.9,-14.1,-40.1,120.1,-5.1,-7.6,62.37,39.35335,16.21967,260.0,225.6842499,5.0,3.0,214.7,10 / 20,6485,2017-05-30 21:24:10:777
1.242,1.897,10.08,1.28,0.885,9.684,0.109,0.763,0.409,-22.9,-14.1,-40.1,120.1,-5.1,-7.6,62.37,39.35335,16.21967,260.0,225.6842499,5.0,3.0,214.7,10 / 20,6495,2017-05-30 21:24:10:787
1.328,2.395,9.8,1.253,0.926,9.684,-0.014,0.967,0.395,-23.3,-13.7,-40.1,120.1,-5.1,-7.6,62.37,39.35335,16.21967,260.0,225.6842499,5.0,3.0,214.7,10 / 20,6504,2017-05-30 21:24:10:796
1.328,2.395,9.8,1.253,0.926,9.684,-0.014,0.967,0.395,-23.3,-13.7,-40.1,120.1,-5.1,-7.6,62.37,39.35335,16.21967,260.0,225.6842499,5.0,3.0,214.7,10 / 20,6515,2017-05-30 21:24:10:807
1.29,2.587,9.38,1.212,0.994,9.684,0.109,1.389,0.123,-23.1,-13.1,-40.1,116.8,-5.4,-7.4,62.37,39.35335,16.21967,260.0,225.6842499,5.0,3.0,214.7,10 / 20,6525,2017-05-30 21:24:10:817
1.29,2.587,9.38,1.212,0.994,9.684,0.109,1.389,0.123,-23.1,-13.1,-40.1,116.8,-5.4,-7.4,62.37,39.35335,16.21967,260.0,225.6842499,5.0,3.0,214.7,10 / 20,6535,2017-05-30 21:24:10:827
0.591,2.347,9.613,1.171,1.09,9.684,0.109,1.498,-0.3,-23.2,-13.2,-40.0,116.8,-5.4,-7.4,65.91,39.35335,16.21967,260.0,225.6842499,5.0,3.0,214.7,10 / 20,6544,2017-05-30 21:24:10:836
0.591,2.347,9.613,1.171,1.09,9.684,0.109,1.498,-0.3,-23.2,-13.2,-40.0,116.8,-5.4,-7.4,65.91,39.35335,16.21967,260.0,225.6842499,5.0,3.0,214.7,10 / 20,6555,2017-05-30 21:24:10:847
0.371,1.792,9.8,1.144,1.199,9.67,-0.558,1.144,-0.054,-23.5,-12.9,-39.9,113.3,-6.4,-6.9,65.91,39.35335,16.21967,260.0,225.6842499,5.0,3.0,214.7,10 / 20,6565,2017-05-30 21:24:10:857
0.371,1.792,9.8,1.144,1.199,9.67,-0.558,1.144,-0.054,-23.5,-12.9,-39.9,113.3,-6.4,-6.9,65.91,39.35335,16.21967,260.0,225.6842499,5.0,3.0,214.7,10 / 20,6574,2017-05-30 21:24:10:866
0.706,2.127,9.735,1.103,1.294,9.67,-0.735,0.49,0.136,-23.7,-13.1,-40.0,113.3,-6.4,-6.9,65.91,39.35335,16.21967,260.0,225.6842499,5.0,3.0,214.7,10 / 20,6585,2017-05-30 21:24:10:877
0.706,2.127,9.735,1.103,1.294,9.67,-0.735,0.49,0.136,-23.7,-13.1,-40.0,113.3,-6.4,-6.9,65.91,39.35335,16.21967,260.0,225.6842499,5.0,3.0,214.7,10 / 20,6595,2017-05-30 21:24:10:887
0.332,1.342,9.342,1.049,1.403,9.657,-0.763,0.436,-0.245,-24.2,-13.2,-39.9,110.7,-7.6,-6.5,65.91,39.35335,16.21967,260.0,225.6842499,5.0,3.0,214.7,10 / 20,6606,2017-05-30 21:24:10:898
1.501,1.677,10.426,0.994,1.498,9.643,-0.667,-0.163,-0.3,-23.8,-13.2,-40.0,110.7,-7.6,-6.5,65.91,39.35335,16.21967,260.0,225.6842499,5.0,3.0,214.7,10 / 20,6615,2017-05-30 21:24:10:907
1.501,1.677,10.426,0.994,1.498,9.643,-0.667,-0.163,-0.3,-23.8,-13.2,-40.0,110.7,-7.6,-6.5,65.91,39.35335,16.21967,260.0,225.6842499,5.0,3.0,214.7,10 / 20,6625,2017-05-30 21:24:10:917
